key_resp.keys,key_resp.rt,sleep_kb.keys,sleep_kb.rt,stress_slide.response,stress_slide.rt,inst_1_1_kb.keys,inst_1_1_kb.rt,inst_1_1_1_kb.keys,inst_1_1_1_kb.rt,inst_1_2_kb.keys,inst_1_2_kb.rt,inst_1_3_kb.keys,inst_1_3_kb.rt,target_kb.keys,targetOnset,PRATICA.thisRepN,PRATICA.thisTrialN,PRATICA.thisN,PRATICA.thisIndex,PRATICA.ran,target_col,cue_col,participant,condition,session,date,expName,psychopyVersion,OS,frameRate,target_kb.rt,inst2_kb.keys,inst2_kb.rt,start_run,TRIAL.thisRepN,TRIAL.thisTrialN,TRIAL.thisN,TRIAL.thisIndex,TRIAL.ran,LW_P,RUN,B
p,12.1541,3,33.2801,1.01171875,19.31,p,19.3897,p,18.2652,p,16.5727,p,20.1662,,0.0658,0,0,0,0,1,nogo.png,cue2.png,GNG66,SD,1,2023-10-03_10h34.07.161,Cued_GNG,2022.2.5,Win32,60.1612321,,,,,,,,,,,,
,,,,,,,,,,,,,,space,0.0663,0,1,1,1,1,go.png,cue2.png,GNG66,SD,1,2023-10-03_10h34.07.161,Cued_GNG,2022.2.5,Win32,60.1612321,0.4518,,,,,,,,,,,
,,,,,,,,,,,,,,,0.0661,0,2,2,2,1,nogo.png,cue1.png,GNG66,SD,1,2023-10-03_10h34.07.161,Cued_GNG,2022.2.5,Win32,60.1612321,,,,,,,,,,,,
,,,,,,,,,,,,,,,0.0665,0,3,3,3,1,nogo.png,cue2.png,GNG66,SD,1,2023-10-03_10h34.07.161,Cued_GNG,2022.2.5,Win32,60.1612321,,,,,,,,,,,,
,,,,,,,,,,,,,,space,0.0662,0,4,4,4,1,go.png,cue2.png,GNG66,SD,1,2023-10-03_10h34.07.161,Cued_GNG,2022.2.5,Win32,60.1612321,0.5037,,,,,,,,,,,
,,,,,,,,,,,,,,space,0.0665,0,5,5,5,1,go.png,cue1.png,GNG66,SD,1,2023-10-03_10h34.07.161,Cued_GNG,2022.2.5,Win32,60.1612321,0.6573,,,,,,,,,,,
,,,,,,,,,,,,,,space,0.0662,0,6,6,6,1,go.png,cue1.png,GNG66,SD,1,2023-10-03_10h34.07.161,Cued_GNG,2022.2.5,Win32,60.1612321,0.5489,,,,,,,,,,,
,,,,,,,,,,,,,,space,0.0662,0,7,7,7,1,go.png,cue2.png,GNG66,SD,1,2023-10-03_10h34.07.161,Cued_GNG,2022.2.5,Win32,60.1612321,0.5223,,,,,,,,,,,
,,,,,,,,,,,,,,,0.066,0,8,8,8,1,nogo.png,cue2.png,GNG66,SD,1,2023-10-03_10h34.07.161,Cued_GNG,2022.2.5,Win32,60.1612321,,,,,,,,,,,,
,,,,,,,,,,,,,,,0.0663,0,9,9,9,1,nogo.png,cue1.png,GNG66,SD,1,2023-10-03_10h34.07.161,Cued_GNG,2022.2.5,Win32,60.1612321,,,,,,,,,,,,
,,,,,,,,,,,,,,space,0.0663,0,10,10,10,1,go.png,cue1.png,GNG66,SD,1,2023-10-03_10h34.07.161,Cued_GNG,2022.2.5,Win32,60.1612321,0.4969,,,,,,,,,,,
,,,,,,,,,,,,,,,0.0663,,,,,,nogo.png,,GNG66,SD,1,2023-10-03_10h34.07.161,Cued_GNG,2022.2.5,Win32,60.1612321,,p,18.8039,1,0,0,0,0,1,0.2,1,1
,,,,,,,,,,,,,,,0.0664,,,,,,nogo.png,,GNG66,SD,1,2023-10-03_10h34.07.161,Cued_GNG,2022.2.5,Win32,60.1612321,,,,1,0,1,1,1,1,0.2,1,1
,,,,,,,,,,,,,,space,0.0663,,,,,,go.png,,GNG66,SD,1,2023-10-03_10h34.07.161,Cued_GNG,2022.2.5,Win32,60.1612321,0.3647,,,1,0,2,2,2,1,0.2,1,1
,,,,,,,,,,,,,,,0.0667,,,,,,nogo.png,,GNG66,SD,1,2023-10-03_10h34.07.161,Cued_GNG,2022.2.5,Win32,60.1612321,,,,1,0,3,3,3,1,0.2,1,1
,,,,,,,,,,,,,,,0.0665,,,,,,nogo.png,,GNG66,SD,1,2023-10-03_10h34.07.161,Cued_GNG,2022.2.5,Win32,60.1612321,,,,1,0,4,4,4,1,0.2,1,1
,,,,,,,,,,,,,,,0.0664,,,,,,nogo.png,,GNG66,SD,1,2023-10-03_10h34.07.161,Cued_GNG,2022.2.5,Win32,60.1612321,,,,1,0,5,5,5,1,0.2,1,1
,,,,,,,,,,,,,,space,0.0501,,,,,,go.png,,GNG66,SD,1,2023-10-03_10h34.07.161,Cued_GNG,2022.2.5,Win32,60.1612321,0.3596,,,1,0,6,6,6,1,0.2,1,1
,,,,,,,,,,,,,,,0.0666,,,,,,nogo.png,,GNG66,SD,1,2023-10-03_10h34.07.161,Cued_GNG,2022.2.5,Win32,60.1612321,,,,1,0,7,7,7,1,0.2,1,1
,,,,,,,,,,,,,,,0.0666,,,,,,nogo.png,,GNG66,SD,1,2023-10-03_10h34.07.161,Cued_GNG,2022.2.5,Win32,60.1612321,,,,1,0,8,8,8,1,0.2,1,1
,,,,,,,,,,,,,,space,0.0663,,,,,,nogo.png,,GNG66,SD,1,2023-10-03_10h34.07.161,Cued_GNG,2022.2.5,Win32,60.1612321,0.311,,,1,0,9,9,9,1,0.2,1,1
,,,,,,,,,,,,,,,0.0662,,,,,,nogo.png,,GNG66,SD,1,2023-10-03_10h34.07.161,Cued_GNG,2022.2.5,Win32,60.1612321,,,,1,0,10,10,10,1,0.2,1,1
,,,,,,,,,,,,,,,0.0661,,,,,,nogo.png,,GNG66,SD,1,2023-10-03_10h34.07.161,Cued_GNG,2022.2.5,Win32,60.1612321,,,,1,0,11,11,11,1,0.2,1,1
,,,,,,,,,,,,,,,0.0664,,,,,,nogo.png,,GNG66,SD,1,2023-10-03_10h34.07.161,Cued_GNG,2022.2.5,Win32,60.1612321,,,,1,0,12,12,12,1,0.2,1,1
,,,,,,,,,,,,,,space,0.0667,,,,,,go.png,,GNG66,SD,1,2023-10-03_10h34.07.161,Cued_GNG,2022.2.5,Win32,60.1612321,0.4765,,,1,0,13,13,13,1,0.2,1,1
,,,,,,,,,,,,,,,0.0659,,,,,,nogo.png,,GNG66,SD,1,2023-10-03_10h34.07.161,Cued_GNG,2022.2.5,Win32,60.1612321,,,,1,0,14,14,14,1,0.2,1,1
,,,,,,,,,,,,,,,0.0664,,,,,,nogo.png,,GNG66,SD,1,2023-10-03_10h34.07.161,Cued_GNG,2022.2.5,Win32,60.1612321,,,,1,0,15,15,15,1,0.2,1,1
,,,,,,,,,,,,,,,0.0662,,,,,,nogo.png,,GNG66,SD,1,2023-10-03_10h34.07.161,Cued_GNG,2022.2.5,Win32,60.1612321,,,,1,0,16,16,16,1,0.2,1,1
,,,,,,,,,,,,,,space,0.0666,,,,,,go.png,,GNG66,SD,1,2023-10-03_10h34.07.161,Cued_GNG,2022.2.5,Win32,60.1612321,0.2805,,,1,0,17,17,17,1,0.2,1,1
,,,,,,,,,,,,,,,0.0662,,,,,,nogo.png,,GNG66,SD,1,2023-10-03_10h34.07.161,Cued_GNG,2022.2.5,Win32,60.1612321,,,,1,0,18,18,18,1,0.2,1,1
,,,,,,,,,,,,,,,0.0662,,,,,,nogo.png,,GNG66,SD,1,2023-10-03_10h34.07.161,Cued_GNG,2022.2.5,Win32,60.1612321,,,,1,0,19,19,19,1,0.2,1,1
,,,,,,,,,,,,,,,0.05,,,,,,nogo.png,,GNG66,SD,1,2023-10-03_10h34.07.161,Cued_GNG,2022.2.5,Win32,60.1612321,,,,1,0,20,20,20,1,0.2,1,1
,,,,,,,,,,,,,,space,0.0662,,,,,,nogo.png,,GNG66,SD,1,2023-10-03_10h34.07.161,Cued_GNG,2022.2.5,Win32,60.1612321,0.3202,,,1,0,21,21,21,1,0.2,1,1
,,,,,,,,,,,,,,space,0.0664,,,,,,go.png,,GNG66,SD,1,2023-10-03_10h34.07.161,Cued_GNG,2022.2.5,Win32,60.1612321,0.622,,,1,0,22,22,22,1,0.2,1,1
,,,,,,,,,,,,,,,0.0649,,,,,,nogo.png,,GNG66,SD,1,2023-10-03_10h34.07.161,Cued_GNG,2022.2.5,Win32,60.1612321,,,,1,0,23,23,23,1,0.2,1,1
,,,,,,,,,,,,,,,0.0663,,,,,,nogo.png,,GNG66,SD,1,2023-10-03_10h34.07.161,Cued_GNG,2022.2.5,Win32,60.1612321,,,,1,0,24,24,24,1,0.2,1,1
,,,,,,,,,,,,,,,0.0667,,,,,,nogo.png,,GNG66,SD,1,2023-10-03_10h34.07.161,Cued_GNG,2022.2.5,Win32,60.1612321,,,,1,0,25,25,25,1,0.2,1,1
,,,,,,,,,,,,,,,0.0661,,,,,,nogo.png,,GNG66,SD,1,2023-10-03_10h34.07.161,Cued_GNG,2022.2.5,Win32,60.1612321,,,,1,0,26,26,26,1,0.2,1,1
,,,,,,,,,,,,,,,0.0664,,,,,,nogo.png,,GNG66,SD,1,2023-10-03_10h34.07.161,Cued_GNG,2022.2.5,Win32,60.1612321,,,,1,0,27,27,27,1,0.2,1,1
,,,,,,,,,,,,,,,0.0663,,,,,,nogo.png,,GNG66,SD,1,2023-10-03_10h34.07.161,Cued_GNG,2022.2.5,Win32,60.1612321,,,,1,0,28,28,28,1,0.2,1,1
,,,,,,,,,,,,,,,0.0663,,,,,,nogo.png,,GNG66,SD,1,2023-10-03_10h34.07.161,Cued_GNG,2022.2.5,Win32,60.1612321,,,,1,0,29,29,29,1,0.2,1,1
,,,,,,,,,,,,,,space,0.05,,,,,,go.png,,GNG66,SD,1,2023-10-03_10h34.07.161,Cued_GNG,2022.2.5,Win32,60.1612321,0.4536,,,1,0,30,30,30,1,0.2,1,1
,,,,,,,,,,,,,,,0.0664,,,,,,nogo.png,,GNG66,SD,1,2023-10-03_10h34.07.161,Cued_GNG,2022.2.5,Win32,60.1612321,,,,1,0,31,31,31,1,0.2,1,1
,,,,,,,,,,,,,,,0.0664,,,,,,nogo.png,,GNG66,SD,1,2023-10-03_10h34.07.161,Cued_GNG,2022.2.5,Win32,60.1612321,,,,1,0,32,32,32,1,0.2,1,1
,,,,,,,,,,,,,,,0.0663,,,,,,nogo.png,,GNG66,SD,1,2023-10-03_10h34.07.161,Cued_GNG,2022.2.5,Win32,60.1612321,,,,1,0,33,33,33,1,0.2,1,1
,,,,,,,,,,,,,,space,0.0664,,,,,,go.png,,GNG66,SD,1,2023-10-03_10h34.07.161,Cued_GNG,2022.2.5,Win32,60.1612321,0.3755,,,1,0,34,34,34,1,0.2,1,1
,,,,,,,,,,,,,,,0.0664,,,,,,nogo.png,,GNG66,SD,1,2023-10-03_10h34.07.161,Cued_GNG,2022.2.5,Win32,60.1612321,,,,1,0,35,35,35,1,0.2,1,1
,,,,,,,,,,,,,,,0.0663,,,,,,nogo.png,,GNG66,SD,1,2023-10-03_10h34.07.161,Cued_GNG,2022.2.5,Win32,60.1612321,,,,1,0,36,36,36,1,0.2,1,1
,,,,,,,,,,,,,,,0.0664,,,,,,nogo.png,,GNG66,SD,1,2023-10-03_10h34.07.161,Cued_GNG,2022.2.5,Win32,60.1612321,,,,1,0,37,37,37,1,0.2,1,1
,,,,,,,,,,,,,,,0.0665,,,,,,nogo.png,,GNG66,SD,1,2023-10-03_10h34.07.161,Cued_GNG,2022.2.5,Win32,60.1612321,,,,1,0,38,38,38,1,0.2,1,1
,,,,,,,,,,,,,,space,0.0663,,,,,,go.png,,GNG66,SD,1,2023-10-03_10h34.07.161,Cued_GNG,2022.2.5,Win32,60.1612321,0.406,,,1,0,39,39,39,1,0.2,1,1
,,,,,,,,,,,,,,space,0.0663,,,,,,go.png,,GNG66,SD,1,2023-10-03_10h34.07.161,Cued_GNG,2022.2.5,Win32,60.1612321,0.5439,,,1,0,40,40,40,1,0.8,1,2
,,,,,,,,,,,,,,space,0.0663,,,,,,go.png,,GNG66,SD,1,2023-10-03_10h34.07.161,Cued_GNG,2022.2.5,Win32,60.1612321,0.4735,,,1,0,41,41,41,1,0.8,1,2
,,,,,,,,,,,,,,,0.0663,,,,,,nogo.png,,GNG66,SD,1,2023-10-03_10h34.07.161,Cued_GNG,2022.2.5,Win32,60.1612321,,,,1,0,42,42,42,1,0.8,1,2
,,,,,,,,,,,,,,space,0.0663,,,,,,go.png,,GNG66,SD,1,2023-10-03_10h34.07.161,Cued_GNG,2022.2.5,Win32,60.1612321,0.44,,,1,0,43,43,43,1,0.8,1,2
,,,,,,,,,,,,,,space,0.0663,,,,,,go.png,,GNG66,SD,1,2023-10-03_10h34.07.161,Cued_GNG,2022.2.5,Win32,60.1612321,0.3948,,,1,0,44,44,44,1,0.8,1,2
,,,,,,,,,,,,,,space,0.0663,,,,,,go.png,,GNG66,SD,1,2023-10-03_10h34.07.161,Cued_GNG,2022.2.5,Win32,60.1612321,0.3732,,,1,0,45,45,45,1,0.8,1,2
,,,,,,,,,,,,,,,0.0665,,,,,,nogo.png,,GNG66,SD,1,2023-10-03_10h34.07.161,Cued_GNG,2022.2.5,Win32,60.1612321,,,,1,0,46,46,46,1,0.8,1,2
,,,,,,,,,,,,,,space,0.0664,,,,,,go.png,,GNG66,SD,1,2023-10-03_10h34.07.161,Cued_GNG,2022.2.5,Win32,60.1612321,0.3703,,,1,0,47,47,47,1,0.8,1,2
,,,,,,,,,,,,,,space,0.0661,,,,,,go.png,,GNG66,SD,1,2023-10-03_10h34.07.161,Cued_GNG,2022.2.5,Win32,60.1612321,0.4517,,,1,0,48,48,48,1,0.8,1,2
,,,,,,,,,,,,,,space,0.0664,,,,,,go.png,,GNG66,SD,1,2023-10-03_10h34.07.161,Cued_GNG,2022.2.5,Win32,60.1612321,0.453,,,1,0,49,49,49,1,0.8,1,2
,,,,,,,,,,,,,,space,0.0666,,,,,,go.png,,GNG66,SD,1,2023-10-03_10h34.07.161,Cued_GNG,2022.2.5,Win32,60.1612321,0.4364,,,1,0,50,50,50,1,0.8,1,2
,,,,,,,,,,,,,,space,0.0663,,,,,,go.png,,GNG66,SD,1,2023-10-03_10h34.07.161,Cued_GNG,2022.2.5,Win32,60.1612321,0.442,,,1,0,51,51,51,1,0.8,1,2
,,,,,,,,,,,,,,space,0.0663,,,,,,go.png,,GNG66,SD,1,2023-10-03_10h34.07.161,Cued_GNG,2022.2.5,Win32,60.1612321,0.377,,,1,0,52,52,52,1,0.8,1,2
,,,,,,,,,,,,,,,0.0664,,,,,,nogo.png,,GNG66,SD,1,2023-10-03_10h34.07.161,Cued_GNG,2022.2.5,Win32,60.1612321,,,,1,0,53,53,53,1,0.8,1,2
,,,,,,,,,,,,,,space,0.0664,,,,,,go.png,,GNG66,SD,1,2023-10-03_10h34.07.161,Cued_GNG,2022.2.5,Win32,60.1612321,0.4106,,,1,0,54,54,54,1,0.8,1,2
,,,,,,,,,,,,,,space,0.0701,,,,,,go.png,,GNG66,SD,1,2023-10-03_10h34.07.161,Cued_GNG,2022.2.5,Win32,60.1612321,0.6485,,,1,0,55,55,55,1,0.8,1,2
,,,,,,,,,,,,,,space,0.0664,,,,,,go.png,,GNG66,SD,1,2023-10-03_10h34.07.161,Cued_GNG,2022.2.5,Win32,60.1612321,0.3738,,,1,0,56,56,56,1,0.8,1,2
,,,,,,,,,,,,,,space,0.0661,,,,,,go.png,,GNG66,SD,1,2023-10-03_10h34.07.161,Cued_GNG,2022.2.5,Win32,60.1612321,0.3696,,,1,0,57,57,57,1,0.8,1,2
,,,,,,,,,,,,,,space,0.0669,,,,,,go.png,,GNG66,SD,1,2023-10-03_10h34.07.161,Cued_GNG,2022.2.5,Win32,60.1612321,0.392,,,1,0,58,58,58,1,0.8,1,2
,,,,,,,,,,,,,,,0.0651,,,,,,nogo.png,,GNG66,SD,1,2023-10-03_10h34.07.161,Cued_GNG,2022.2.5,Win32,60.1612321,,,,1,0,59,59,59,1,0.8,1,2
,,,,,,,,,,,,,,space,0.0666,,,,,,go.png,,GNG66,SD,1,2023-10-03_10h34.07.161,Cued_GNG,2022.2.5,Win32,60.1612321,0.4059,,,1,0,60,60,60,1,0.8,1,2
,,,,,,,,,,,,,,space,0.0501,,,,,,go.png,,GNG66,SD,1,2023-10-03_10h34.07.161,Cued_GNG,2022.2.5,Win32,60.1612321,0.5561,,,1,0,61,61,61,1,0.8,1,2
,,,,,,,,,,,,,,space,0.0663,,,,,,go.png,,GNG66,SD,1,2023-10-03_10h34.07.161,Cued_GNG,2022.2.5,Win32,60.1612321,0.3754,,,1,0,62,62,62,1,0.8,1,2
,,,,,,,,,,,,,,space,0.0663,,,,,,go.png,,GNG66,SD,1,2023-10-03_10h34.07.161,Cued_GNG,2022.2.5,Win32,60.1612321,0.3587,,,1,0,63,63,63,1,0.8,1,2
,,,,,,,,,,,,,,,0.0664,,,,,,nogo.png,,GNG66,SD,1,2023-10-03_10h34.07.161,Cued_GNG,2022.2.5,Win32,60.1612321,,,,1,0,64,64,64,1,0.8,1,2
,,,,,,,,,,,,,,space,0.0662,,,,,,go.png,,GNG66,SD,1,2023-10-03_10h34.07.161,Cued_GNG,2022.2.5,Win32,60.1612321,0.3087,,,1,0,65,65,65,1,0.8,1,2
,,,,,,,,,,,,,,space,0.0664,,,,,,go.png,,GNG66,SD,1,2023-10-03_10h34.07.161,Cued_GNG,2022.2.5,Win32,60.1612321,0.4024,,,1,0,66,66,66,1,0.8,1,2
,,,,,,,,,,,,,,space,0.0661,,,,,,go.png,,GNG66,SD,1,2023-10-03_10h34.07.161,Cued_GNG,2022.2.5,Win32,60.1612321,0.3878,,,1,0,67,67,67,1,0.8,1,2
,,,,,,,,,,,,,,space,0.0662,,,,,,go.png,,GNG66,SD,1,2023-10-03_10h34.07.161,Cued_GNG,2022.2.5,Win32,60.1612321,0.3735,,,1,0,68,68,68,1,0.8,1,2
,,,,,,,,,,,,,,space,0.0665,,,,,,go.png,,GNG66,SD,1,2023-10-03_10h34.07.161,Cued_GNG,2022.2.5,Win32,60.1612321,0.368,,,1,0,69,69,69,1,0.8,1,2
,,,,,,,,,,,,,,,0.0663,,,,,,nogo.png,,GNG66,SD,1,2023-10-03_10h34.07.161,Cued_GNG,2022.2.5,Win32,60.1612321,,,,1,0,70,70,70,1,0.8,1,2
,,,,,,,,,,,,,,space,0.0662,,,,,,go.png,,GNG66,SD,1,2023-10-03_10h34.07.161,Cued_GNG,2022.2.5,Win32,60.1612321,0.3868,,,1,0,71,71,71,1,0.8,1,2
,,,,,,,,,,,,,,space,0.0664,,,,,,go.png,,GNG66,SD,1,2023-10-03_10h34.07.161,Cued_GNG,2022.2.5,Win32,60.1612321,0.4333,,,1,0,72,72,72,1,0.8,1,2
,,,,,,,,,,,,,,,0.0665,,,,,,nogo.png,,GNG66,SD,1,2023-10-03_10h34.07.161,Cued_GNG,2022.2.5,Win32,60.1612321,,,,1,0,73,73,73,1,0.8,1,2
,,,,,,,,,,,,,,space,0.0662,,,,,,go.png,,GNG66,SD,1,2023-10-03_10h34.07.161,Cued_GNG,2022.2.5,Win32,60.1612321,0.4406,,,1,0,74,74,74,1,0.8,1,2
,,,,,,,,,,,,,,space,0.0663,,,,,,go.png,,GNG66,SD,1,2023-10-03_10h34.07.161,Cued_GNG,2022.2.5,Win32,60.1612321,0.3891,,,1,0,75,75,75,1,0.8,1,2
,,,,,,,,,,,,,,space,0.0662,,,,,,go.png,,GNG66,SD,1,2023-10-03_10h34.07.161,Cued_GNG,2022.2.5,Win32,60.1612321,0.4152,,,1,0,76,76,76,1,0.8,1,2
,,,,,,,,,,,,,,,0.0665,,,,,,nogo.png,,GNG66,SD,1,2023-10-03_10h34.07.161,Cued_GNG,2022.2.5,Win32,60.1612321,,,,1,0,77,77,77,1,0.8,1,2
,,,,,,,,,,,,,,space,0.0667,,,,,,go.png,,GNG66,SD,1,2023-10-03_10h34.07.161,Cued_GNG,2022.2.5,Win32,60.1612321,0.3032,,,1,0,78,78,78,1,0.8,1,2
,,,,,,,,,,,,,,space,0.0659,,,,,,go.png,,GNG66,SD,1,2023-10-03_10h34.07.161,Cued_GNG,2022.2.5,Win32,60.1612321,0.3882,,,1,0,79,79,79,1,0.8,1,2
,,,,,,,,,,,,,,,0.0664,,,,,,nogo.png,,GNG66,SD,1,2023-10-03_10h34.07.161,Cued_GNG,2022.2.5,Win32,60.1612321,,,,1,0,80,80,80,1,0.5,1,3
,,,,,,,,,,,,,,,0.0663,,,,,,nogo.png,,GNG66,SD,1,2023-10-03_10h34.07.161,Cued_GNG,2022.2.5,Win32,60.1612321,,,,1,0,81,81,81,1,0.5,1,3
,,,,,,,,,,,,,,space,0.0665,,,,,,go.png,,GNG66,SD,1,2023-10-03_10h34.07.161,Cued_GNG,2022.2.5,Win32,60.1612321,0.389,,,1,0,82,82,82,1,0.5,1,3
,,,,,,,,,,,,,,space,0.0664,,,,,,go.png,,GNG66,SD,1,2023-10-03_10h34.07.161,Cued_GNG,2022.2.5,Win32,60.1612321,0.5367,,,1,0,83,83,83,1,0.5,1,3
,,,,,,,,,,,,,,,0.0664,,,,,,nogo.png,,GNG66,SD,1,2023-10-03_10h34.07.161,Cued_GNG,2022.2.5,Win32,60.1612321,,,,1,0,84,84,84,1,0.5,1,3
,,,,,,,,,,,,,,space,0.0664,,,,,,go.png,,GNG66,SD,1,2023-10-03_10h34.07.161,Cued_GNG,2022.2.5,Win32,60.1612321,0.3767,,,1,0,85,85,85,1,0.5,1,3
,,,,,,,,,,,,,,space,0.0664,,,,,,go.png,,GNG66,SD,1,2023-10-03_10h34.07.161,Cued_GNG,2022.2.5,Win32,60.1612321,0.4218,,,1,0,86,86,86,1,0.5,1,3
,,,,,,,,,,,,,,,0.0664,,,,,,nogo.png,,GNG66,SD,1,2023-10-03_10h34.07.161,Cued_GNG,2022.2.5,Win32,60.1612321,,,,1,0,87,87,87,1,0.5,1,3
,,,,,,,,,,,,,,,0.0631,,,,,,nogo.png,,GNG66,SD,1,2023-10-03_10h34.07.161,Cued_GNG,2022.2.5,Win32,60.1612321,,,,1,0,88,88,88,1,0.5,1,3
,,,,,,,,,,,,,,space,0.0668,,,,,,go.png,,GNG66,SD,1,2023-10-03_10h34.07.161,Cued_GNG,2022.2.5,Win32,60.1612321,0.3715,,,1,0,89,89,89,1,0.5,1,3
,,,,,,,,,,,,,,space,0.0663,,,,,,go.png,,GNG66,SD,1,2023-10-03_10h34.07.161,Cued_GNG,2022.2.5,Win32,60.1612321,0.4025,,,1,0,90,90,90,1,0.5,1,3
,,,,,,,,,,,,,,,0.0664,,,,,,nogo.png,,GNG66,SD,1,2023-10-03_10h34.07.161,Cued_GNG,2022.2.5,Win32,60.1612321,,,,1,0,91,91,91,1,0.5,1,3
,,,,,,,,,,,,,,,0.0662,,,,,,nogo.png,,GNG66,SD,1,2023-10-03_10h34.07.161,Cued_GNG,2022.2.5,Win32,60.1612321,,,,1,0,92,92,92,1,0.5,1,3
,,,,,,,,,,,,,,space,0.0663,,,,,,go.png,,GNG66,SD,1,2023-10-03_10h34.07.161,Cued_GNG,2022.2.5,Win32,60.1612321,0.3613,,,1,0,93,93,93,1,0.5,1,3
,,,,,,,,,,,,,,space,0.0666,,,,,,go.png,,GNG66,SD,1,2023-10-03_10h34.07.161,Cued_GNG,2022.2.5,Win32,60.1612321,0.4022,,,1,0,94,94,94,1,0.5,1,3
,,,,,,,,,,,,,,space,0.0665,,,,,,go.png,,GNG66,SD,1,2023-10-03_10h34.07.161,Cued_GNG,2022.2.5,Win32,60.1612321,0.4257,,,1,0,95,95,95,1,0.5,1,3
,,,,,,,,,,,,,,,0.0663,,,,,,nogo.png,,GNG66,SD,1,2023-10-03_10h34.07.161,Cued_GNG,2022.2.5,Win32,60.1612321,,,,1,0,96,96,96,1,0.5,1,3
,,,,,,,,,,,,,,,0.0663,,,,,,nogo.png,,GNG66,SD,1,2023-10-03_10h34.07.161,Cued_GNG,2022.2.5,Win32,60.1612321,,,,1,0,97,97,97,1,0.5,1,3
,,,,,,,,,,,,,,space,0.0662,,,,,,go.png,,GNG66,SD,1,2023-10-03_10h34.07.161,Cued_GNG,2022.2.5,Win32,60.1612321,0.3383,,,1,0,98,98,98,1,0.5,1,3
,,,,,,,,,,,,,,,0.0665,,,,,,nogo.png,,GNG66,SD,1,2023-10-03_10h34.07.161,Cued_GNG,2022.2.5,Win32,60.1612321,,,,1,0,99,99,99,1,0.5,1,3
,,,,,,,,,,,,,,,0.0663,,,,,,nogo.png,,GNG66,SD,1,2023-10-03_10h34.07.161,Cued_GNG,2022.2.5,Win32,60.1612321,,,,1,0,100,100,100,1,0.5,1,3
,,,,,,,,,,,,,,,0.0663,,,,,,nogo.png,,GNG66,SD,1,2023-10-03_10h34.07.161,Cued_GNG,2022.2.5,Win32,60.1612321,,,,1,0,101,101,101,1,0.5,1,3
,,,,,,,,,,,,,,space,0.0664,,,,,,go.png,,GNG66,SD,1,2023-10-03_10h34.07.161,Cued_GNG,2022.2.5,Win32,60.1612321,0.2938,,,1,0,102,102,102,1,0.5,1,3
,,,,,,,,,,,,,,space,0.0665,,,,,,go.png,,GNG66,SD,1,2023-10-03_10h34.07.161,Cued_GNG,2022.2.5,Win32,60.1612321,0.4253,,,1,0,103,103,103,1,0.5,1,3
,,,,,,,,,,,,,,,0.0665,,,,,,nogo.png,,GNG66,SD,1,2023-10-03_10h34.07.161,Cued_GNG,2022.2.5,Win32,60.1612321,,,,1,0,104,104,104,1,0.5,1,3
,,,,,,,,,,,,,,space,0.0663,,,,,,go.png,,GNG66,SD,1,2023-10-03_10h34.07.161,Cued_GNG,2022.2.5,Win32,60.1612321,0.3944,,,1,0,105,105,105,1,0.5,1,3
,,,,,,,,,,,,,,space,0.0663,,,,,,go.png,,GNG66,SD,1,2023-10-03_10h34.07.161,Cued_GNG,2022.2.5,Win32,60.1612321,0.3854,,,1,0,106,106,106,1,0.5,1,3
,,,,,,,,,,,,,,,0.0663,,,,,,nogo.png,,GNG66,SD,1,2023-10-03_10h34.07.161,Cued_GNG,2022.2.5,Win32,60.1612321,,,,1,0,107,107,107,1,0.5,1,3
,,,,,,,,,,,,,,space,0.0664,,,,,,go.png,,GNG66,SD,1,2023-10-03_10h34.07.161,Cued_GNG,2022.2.5,Win32,60.1612321,0.382,,,1,0,108,108,108,1,0.5,1,3
,,,,,,,,,,,,,,,0.0665,,,,,,nogo.png,,GNG66,SD,1,2023-10-03_10h34.07.161,Cued_GNG,2022.2.5,Win32,60.1612321,,,,1,0,109,109,109,1,0.5,1,3
,,,,,,,,,,,,,,space,0.0664,,,,,,go.png,,GNG66,SD,1,2023-10-03_10h34.07.161,Cued_GNG,2022.2.5,Win32,60.1612321,0.4114,,,1,0,110,110,110,1,0.5,1,3
,,,,,,,,,,,,,,,0.0666,,,,,,nogo.png,,GNG66,SD,1,2023-10-03_10h34.07.161,Cued_GNG,2022.2.5,Win32,60.1612321,,,,1,0,111,111,111,1,0.5,1,3
,,,,,,,,,,,,,,,0.0663,,,,,,nogo.png,,GNG66,SD,1,2023-10-03_10h34.07.161,Cued_GNG,2022.2.5,Win32,60.1612321,,,,1,0,112,112,112,1,0.8,2,4
,,,,,,,,,,,,,,space,0.0662,,,,,,go.png,,GNG66,SD,1,2023-10-03_10h34.07.161,Cued_GNG,2022.2.5,Win32,60.1612321,0.298,,,1,0,113,113,113,1,0.8,2,4
,,,,,,,,,,,,,,space,0.0657,,,,,,go.png,,GNG66,SD,1,2023-10-03_10h34.07.161,Cued_GNG,2022.2.5,Win32,60.1612321,0.4273,,,1,0,114,114,114,1,0.8,2,4
,,,,,,,,,,,,,,space,0.0662,,,,,,go.png,,GNG66,SD,1,2023-10-03_10h34.07.161,Cued_GNG,2022.2.5,Win32,60.1612321,0.4492,,,1,0,115,115,115,1,0.8,2,4
,,,,,,,,,,,,,,,0.0662,,,,,,nogo.png,,GNG66,SD,1,2023-10-03_10h34.07.161,Cued_GNG,2022.2.5,Win32,60.1612321,,,,1,0,116,116,116,1,0.8,2,4
,,,,,,,,,,,,,,space,0.0665,,,,,,go.png,,GNG66,SD,1,2023-10-03_10h34.07.161,Cued_GNG,2022.2.5,Win32,60.1612321,0.3569,,,1,0,117,117,117,1,0.8,2,4
,,,,,,,,,,,,,,space,0.0664,,,,,,go.png,,GNG66,SD,1,2023-10-03_10h34.07.161,Cued_GNG,2022.2.5,Win32,60.1612321,0.3694,,,1,0,118,118,118,1,0.8,2,4
,,,,,,,,,,,,,,space,0.0662,,,,,,go.png,,GNG66,SD,1,2023-10-03_10h34.07.161,Cued_GNG,2022.2.5,Win32,60.1612321,0.3859,,,1,0,119,119,119,1,0.8,2,4
,,,,,,,,,,,,,,,0.0664,,,,,,nogo.png,,GNG66,SD,1,2023-10-03_10h34.07.161,Cued_GNG,2022.2.5,Win32,60.1612321,,,,1,0,120,120,120,1,0.8,2,4
,,,,,,,,,,,,,,space,0.0663,,,,,,go.png,,GNG66,SD,1,2023-10-03_10h34.07.161,Cued_GNG,2022.2.5,Win32,60.1612321,0.3372,,,1,0,121,121,121,1,0.8,2,4
,,,,,,,,,,,,,,space,0.0664,,,,,,go.png,,GNG66,SD,1,2023-10-03_10h34.07.161,Cued_GNG,2022.2.5,Win32,60.1612321,0.3962,,,1,0,122,122,122,1,0.8,2,4
,,,,,,,,,,,,,,space,0.0664,,,,,,go.png,,GNG66,SD,1,2023-10-03_10h34.07.161,Cued_GNG,2022.2.5,Win32,60.1612321,0.3697,,,1,0,123,123,123,1,0.8,2,4
,,,,,,,,,,,,,,space,0.0667,,,,,,go.png,,GNG66,SD,1,2023-10-03_10h34.07.161,Cued_GNG,2022.2.5,Win32,60.1612321,0.3898,,,1,0,124,124,124,1,0.8,2,4
,,,,,,,,,,,,,,space,0.0663,,,,,,go.png,,GNG66,SD,1,2023-10-03_10h34.07.161,Cued_GNG,2022.2.5,Win32,60.1612321,0.3762,,,1,0,125,125,125,1,0.8,2,4
,,,,,,,,,,,,,,space,0.0663,,,,,,go.png,,GNG66,SD,1,2023-10-03_10h34.07.161,Cued_GNG,2022.2.5,Win32,60.1612321,0.3768,,,1,0,126,126,126,1,0.8,2,4
,,,,,,,,,,,,,,,0.0662,,,,,,nogo.png,,GNG66,SD,1,2023-10-03_10h34.07.161,Cued_GNG,2022.2.5,Win32,60.1612321,,,,1,0,127,127,127,1,0.8,2,4
,,,,,,,,,,,,,,space,0.0664,,,,,,go.png,,GNG66,SD,1,2023-10-03_10h34.07.161,Cued_GNG,2022.2.5,Win32,60.1612321,0.3579,,,1,0,128,128,128,1,0.8,2,4
,,,,,,,,,,,,,,space,0.0661,,,,,,go.png,,GNG66,SD,1,2023-10-03_10h34.07.161,Cued_GNG,2022.2.5,Win32,60.1612321,0.4068,,,1,0,129,129,129,1,0.8,2,4
,,,,,,,,,,,,,,space,0.0663,,,,,,go.png,,GNG66,SD,1,2023-10-03_10h34.07.161,Cued_GNG,2022.2.5,Win32,60.1612321,0.3728,,,1,0,130,130,130,1,0.8,2,4
,,,,,,,,,,,,,,,0.0663,,,,,,nogo.png,,GNG66,SD,1,2023-10-03_10h34.07.161,Cued_GNG,2022.2.5,Win32,60.1612321,,,,1,0,131,131,131,1,0.8,2,4
,,,,,,,,,,,,,,space,0.0662,,,,,,go.png,,GNG66,SD,1,2023-10-03_10h34.07.161,Cued_GNG,2022.2.5,Win32,60.1612321,0.3703,,,1,0,132,132,132,1,0.8,2,4
,,,,,,,,,,,,,,space,0.0664,,,,,,go.png,,GNG66,SD,1,2023-10-03_10h34.07.161,Cued_GNG,2022.2.5,Win32,60.1612321,0.4187,,,1,0,133,133,133,1,0.8,2,4
,,,,,,,,,,,,,,space,0.0661,,,,,,go.png,,GNG66,SD,1,2023-10-03_10h34.07.161,Cued_GNG,2022.2.5,Win32,60.1612321,0.3607,,,1,0,134,134,134,1,0.8,2,4
,,,,,,,,,,,,,,space,0.0664,,,,,,go.png,,GNG66,SD,1,2023-10-03_10h34.07.161,Cued_GNG,2022.2.5,Win32,60.1612321,0.3609,,,1,0,135,135,135,1,0.8,2,4
,,,,,,,,,,,,,,,0.0662,,,,,,nogo.png,,GNG66,SD,1,2023-10-03_10h34.07.161,Cued_GNG,2022.2.5,Win32,60.1612321,,,,1,0,136,136,136,1,0.8,2,4
,,,,,,,,,,,,,,,0.0662,,,,,,nogo.png,,GNG66,SD,1,2023-10-03_10h34.07.161,Cued_GNG,2022.2.5,Win32,60.1612321,,,,1,0,137,137,137,1,0.8,2,4
,,,,,,,,,,,,,,space,0.0664,,,,,,go.png,,GNG66,SD,1,2023-10-03_10h34.07.161,Cued_GNG,2022.2.5,Win32,60.1612321,0.3415,,,1,0,138,138,138,1,0.8,2,4
,,,,,,,,,,,,,,space,0.0667,,,,,,go.png,,GNG66,SD,1,2023-10-03_10h34.07.161,Cued_GNG,2022.2.5,Win32,60.1612321,0.4024,,,1,0,139,139,139,1,0.8,2,4
,,,,,,,,,,,,,,space,0.0665,,,,,,go.png,,GNG66,SD,1,2023-10-03_10h34.07.161,Cued_GNG,2022.2.5,Win32,60.1612321,0.3686,,,1,0,140,140,140,1,0.8,2,4
,,,,,,,,,,,,,,space,0.0664,,,,,,go.png,,GNG66,SD,1,2023-10-03_10h34.07.161,Cued_GNG,2022.2.5,Win32,60.1612321,0.3362,,,1,0,141,141,141,1,0.8,2,4
,,,,,,,,,,,,,,space,0.0662,,,,,,go.png,,GNG66,SD,1,2023-10-03_10h34.07.161,Cued_GNG,2022.2.5,Win32,60.1612321,0.3031,,,1,0,142,142,142,1,0.8,2,4
,,,,,,,,,,,,,,space,0.0661,,,,,,go.png,,GNG66,SD,1,2023-10-03_10h34.07.161,Cued_GNG,2022.2.5,Win32,60.1612321,0.3436,,,1,0,143,143,143,1,0.8,2,4
,,,,,,,,,,,,,,space,0.0665,,,,,,go.png,,GNG66,SD,1,2023-10-03_10h34.07.161,Cued_GNG,2022.2.5,Win32,60.1612321,0.3548,,,1,0,144,144,144,1,0.8,2,4
,,,,,,,,,,,,,,,0.0665,,,,,,nogo.png,,GNG66,SD,1,2023-10-03_10h34.07.161,Cued_GNG,2022.2.5,Win32,60.1612321,,,,1,0,145,145,145,1,0.8,2,4
,,,,,,,,,,,,,,space,0.0658,,,,,,go.png,,GNG66,SD,1,2023-10-03_10h34.07.161,Cued_GNG,2022.2.5,Win32,60.1612321,0.421,,,1,0,146,146,146,1,0.8,2,4
,,,,,,,,,,,,,,space,0.0663,,,,,,go.png,,GNG66,SD,1,2023-10-03_10h34.07.161,Cued_GNG,2022.2.5,Win32,60.1612321,0.3611,,,1,0,147,147,147,1,0.8,2,4
,,,,,,,,,,,,,,space,0.05,,,,,,go.png,,GNG66,SD,1,2023-10-03_10h34.07.161,Cued_GNG,2022.2.5,Win32,60.1612321,0.4111,,,1,0,148,148,148,1,0.8,2,4
,,,,,,,,,,,,,,space,0.0665,,,,,,go.png,,GNG66,SD,1,2023-10-03_10h34.07.161,Cued_GNG,2022.2.5,Win32,60.1612321,0.3523,,,1,0,149,149,149,1,0.8,2,4
,,,,,,,,,,,,,,space,0.0662,,,,,,go.png,,GNG66,SD,1,2023-10-03_10h34.07.161,Cued_GNG,2022.2.5,Win32,60.1612321,0.3539,,,1,0,150,150,150,1,0.8,2,4
,,,,,,,,,,,,,,space,0.0663,,,,,,go.png,,GNG66,SD,1,2023-10-03_10h34.07.161,Cued_GNG,2022.2.5,Win32,60.1612321,0.3739,,,1,0,151,151,151,1,0.8,2,4
,,,,,,,,,,,,,,,0.0663,,,,,,nogo.png,,GNG66,SD,1,2023-10-03_10h34.07.161,Cued_GNG,2022.2.5,Win32,60.1612321,,,,1,0,152,152,152,1,0.2,2,5
,,,,,,,,,,,,,,,0.0662,,,,,,nogo.png,,GNG66,SD,1,2023-10-03_10h34.07.161,Cued_GNG,2022.2.5,Win32,60.1612321,,,,1,0,153,153,153,1,0.2,2,5
,,,,,,,,,,,,,,,0.0657,,,,,,nogo.png,,GNG66,SD,1,2023-10-03_10h34.07.161,Cued_GNG,2022.2.5,Win32,60.1612321,,,,1,0,154,154,154,1,0.2,2,5
,,,,,,,,,,,,,,space,0.0659,,,,,,go.png,,GNG66,SD,1,2023-10-03_10h34.07.161,Cued_GNG,2022.2.5,Win32,60.1612321,0.3701,,,1,0,155,155,155,1,0.2,2,5
,,,,,,,,,,,,,,,0.0665,,,,,,nogo.png,,GNG66,SD,1,2023-10-03_10h34.07.161,Cued_GNG,2022.2.5,Win32,60.1612321,,,,1,0,156,156,156,1,0.2,2,5
,,,,,,,,,,,,,,,0.0664,,,,,,nogo.png,,GNG66,SD,1,2023-10-03_10h34.07.161,Cued_GNG,2022.2.5,Win32,60.1612321,,,,1,0,157,157,157,1,0.2,2,5
,,,,,,,,,,,,,,,0.0501,,,,,,nogo.png,,GNG66,SD,1,2023-10-03_10h34.07.161,Cued_GNG,2022.2.5,Win32,60.1612321,,,,1,0,158,158,158,1,0.2,2,5
,,,,,,,,,,,,,,,0.0665,,,,,,nogo.png,,GNG66,SD,1,2023-10-03_10h34.07.161,Cued_GNG,2022.2.5,Win32,60.1612321,,,,1,0,159,159,159,1,0.2,2,5
,,,,,,,,,,,,,,,0.0662,,,,,,nogo.png,,GNG66,SD,1,2023-10-03_10h34.07.161,Cued_GNG,2022.2.5,Win32,60.1612321,,,,1,0,160,160,160,1,0.2,2,5
,,,,,,,,,,,,,,space,0.0501,,,,,,go.png,,GNG66,SD,1,2023-10-03_10h34.07.161,Cued_GNG,2022.2.5,Win32,60.1612321,0.3918,,,1,0,161,161,161,1,0.2,2,5
,,,,,,,,,,,,,,,0.0663,,,,,,nogo.png,,GNG66,SD,1,2023-10-03_10h34.07.161,Cued_GNG,2022.2.5,Win32,60.1612321,,,,1,0,162,162,162,1,0.2,2,5
,,,,,,,,,,,,,,,0.0664,,,,,,nogo.png,,GNG66,SD,1,2023-10-03_10h34.07.161,Cued_GNG,2022.2.5,Win32,60.1612321,,,,1,0,163,163,163,1,0.2,2,5
,,,,,,,,,,,,,,,0.0663,,,,,,nogo.png,,GNG66,SD,1,2023-10-03_10h34.07.161,Cued_GNG,2022.2.5,Win32,60.1612321,,,,1,0,164,164,164,1,0.2,2,5
,,,,,,,,,,,,,,,0.0663,,,,,,nogo.png,,GNG66,SD,1,2023-10-03_10h34.07.161,Cued_GNG,2022.2.5,Win32,60.1612321,,,,1,0,165,165,165,1,0.2,2,5
,,,,,,,,,,,,,,,0.0664,,,,,,nogo.png,,GNG66,SD,1,2023-10-03_10h34.07.161,Cued_GNG,2022.2.5,Win32,60.1612321,,,,1,0,166,166,166,1,0.2,2,5
,,,,,,,,,,,,,,,0.0663,,,,,,nogo.png,,GNG66,SD,1,2023-10-03_10h34.07.161,Cued_GNG,2022.2.5,Win32,60.1612321,,,,1,0,167,167,167,1,0.2,2,5
,,,,,,,,,,,,,,space,0.0662,,,,,,go.png,,GNG66,SD,1,2023-10-03_10h34.07.161,Cued_GNG,2022.2.5,Win32,60.1612321,0.3055,,,1,0,168,168,168,1,0.2,2,5
,,,,,,,,,,,,,,,0.0664,,,,,,nogo.png,,GNG66,SD,1,2023-10-03_10h34.07.161,Cued_GNG,2022.2.5,Win32,60.1612321,,,,1,0,169,169,169,1,0.2,2,5
,,,,,,,,,,,,,,,0.0655,,,,,,nogo.png,,GNG66,SD,1,2023-10-03_10h34.07.161,Cued_GNG,2022.2.5,Win32,60.1612321,,,,1,0,170,170,170,1,0.2,2,5
,,,,,,,,,,,,,,,0.0663,,,,,,nogo.png,,GNG66,SD,1,2023-10-03_10h34.07.161,Cued_GNG,2022.2.5,Win32,60.1612321,,,,1,0,171,171,171,1,0.2,2,5
,,,,,,,,,,,,,,space,0.0662,,,,,,go.png,,GNG66,SD,1,2023-10-03_10h34.07.161,Cued_GNG,2022.2.5,Win32,60.1612321,0.3728,,,1,0,172,172,172,1,0.2,2,5
,,,,,,,,,,,,,,,0.0663,,,,,,nogo.png,,GNG66,SD,1,2023-10-03_10h34.07.161,Cued_GNG,2022.2.5,Win32,60.1612321,,,,1,0,173,173,173,1,0.2,2,5
,,,,,,,,,,,,,,,0.0665,,,,,,nogo.png,,GNG66,SD,1,2023-10-03_10h34.07.161,Cued_GNG,2022.2.5,Win32,60.1612321,,,,1,0,174,174,174,1,0.2,2,5
,,,,,,,,,,,,,,,0.0661,,,,,,nogo.png,,GNG66,SD,1,2023-10-03_10h34.07.161,Cued_GNG,2022.2.5,Win32,60.1612321,,,,1,0,175,175,175,1,0.2,2,5
,,,,,,,,,,,,,,,0.0663,,,,,,nogo.png,,GNG66,SD,1,2023-10-03_10h34.07.161,Cued_GNG,2022.2.5,Win32,60.1612321,,,,1,0,176,176,176,1,0.2,2,5
,,,,,,,,,,,,,,space,0.05,,,,,,go.png,,GNG66,SD,1,2023-10-03_10h34.07.161,Cued_GNG,2022.2.5,Win32,60.1612321,0.418,,,1,0,177,177,177,1,0.2,2,5
,,,,,,,,,,,,,,,0.0661,,,,,,nogo.png,,GNG66,SD,1,2023-10-03_10h34.07.161,Cued_GNG,2022.2.5,Win32,60.1612321,,,,1,0,178,178,178,1,0.2,2,5
,,,,,,,,,,,,,,space,0.0502,,,,,,go.png,,GNG66,SD,1,2023-10-03_10h34.07.161,Cued_GNG,2022.2.5,Win32,60.1612321,0.4397,,,1,0,179,179,179,1,0.2,2,5
,,,,,,,,,,,,,,,0.0663,,,,,,nogo.png,,GNG66,SD,1,2023-10-03_10h34.07.161,Cued_GNG,2022.2.5,Win32,60.1612321,,,,1,0,180,180,180,1,0.2,2,5
,,,,,,,,,,,,,,,0.0663,,,,,,nogo.png,,GNG66,SD,1,2023-10-03_10h34.07.161,Cued_GNG,2022.2.5,Win32,60.1612321,,,,1,0,181,181,181,1,0.2,2,5
,,,,,,,,,,,,,,,0.066,,,,,,nogo.png,,GNG66,SD,1,2023-10-03_10h34.07.161,Cued_GNG,2022.2.5,Win32,60.1612321,,,,1,0,182,182,182,1,0.2,2,5
,,,,,,,,,,,,,,,0.0663,,,,,,nogo.png,,GNG66,SD,1,2023-10-03_10h34.07.161,Cued_GNG,2022.2.5,Win32,60.1612321,,,,1,0,183,183,183,1,0.2,2,5
,,,,,,,,,,,,,,,0.0663,,,,,,nogo.png,,GNG66,SD,1,2023-10-03_10h34.07.161,Cued_GNG,2022.2.5,Win32,60.1612321,,,,1,0,184,184,184,1,0.2,2,5
,,,,,,,,,,,,,,,0.0663,,,,,,nogo.png,,GNG66,SD,1,2023-10-03_10h34.07.161,Cued_GNG,2022.2.5,Win32,60.1612321,,,,1,0,185,185,185,1,0.2,2,5
,,,,,,,,,,,,,,space,0.0663,,,,,,go.png,,GNG66,SD,1,2023-10-03_10h34.07.161,Cued_GNG,2022.2.5,Win32,60.1612321,0.4489,,,1,0,186,186,186,1,0.2,2,5
,,,,,,,,,,,,,,,0.05,,,,,,nogo.png,,GNG66,SD,1,2023-10-03_10h34.07.161,Cued_GNG,2022.2.5,Win32,60.1612321,,,,1,0,187,187,187,1,0.2,2,5
,,,,,,,,,,,,,,,0.0664,,,,,,nogo.png,,GNG66,SD,1,2023-10-03_10h34.07.161,Cued_GNG,2022.2.5,Win32,60.1612321,,,,1,0,188,188,188,1,0.2,2,5
,,,,,,,,,,,,,,,0.0501,,,,,,nogo.png,,GNG66,SD,1,2023-10-03_10h34.07.161,Cued_GNG,2022.2.5,Win32,60.1612321,,,,1,0,189,189,189,1,0.2,2,5
,,,,,,,,,,,,,,space,0.0663,,,,,,go.png,,GNG66,SD,1,2023-10-03_10h34.07.161,Cued_GNG,2022.2.5,Win32,60.1612321,0.3725,,,1,0,190,190,190,1,0.2,2,5
,,,,,,,,,,,,,,,0.0663,,,,,,nogo.png,,GNG66,SD,1,2023-10-03_10h34.07.161,Cued_GNG,2022.2.5,Win32,60.1612321,,,,1,0,191,191,191,1,0.2,2,5
,,,,,,,,,,,,,,space,0.0663,,,,,,go.png,,GNG66,SD,1,2023-10-03_10h34.07.161,Cued_GNG,2022.2.5,Win32,60.1612321,0.3778,,,1,0,192,192,192,1,0.5,2,6
,,,,,,,,,,,,,,space,0.0664,,,,,,go.png,,GNG66,SD,1,2023-10-03_10h34.07.161,Cued_GNG,2022.2.5,Win32,60.1612321,0.5243,,,1,0,193,193,193,1,0.5,2,6
,,,,,,,,,,,,,,space,0.0662,,,,,,go.png,,GNG66,SD,1,2023-10-03_10h34.07.161,Cued_GNG,2022.2.5,Win32,60.1612321,0.4022,,,1,0,194,194,194,1,0.5,2,6
,,,,,,,,,,,,,,,0.0662,,,,,,nogo.png,,GNG66,SD,1,2023-10-03_10h34.07.161,Cued_GNG,2022.2.5,Win32,60.1612321,,,,1,0,195,195,195,1,0.5,2,6
,,,,,,,,,,,,,,,0.0662,,,,,,nogo.png,,GNG66,SD,1,2023-10-03_10h34.07.161,Cued_GNG,2022.2.5,Win32,60.1612321,,,,1,0,196,196,196,1,0.5,2,6
,,,,,,,,,,,,,,,0.0667,,,,,,nogo.png,,GNG66,SD,1,2023-10-03_10h34.07.161,Cued_GNG,2022.2.5,Win32,60.1612321,,,,1,0,197,197,197,1,0.5,2,6
,,,,,,,,,,,,,,space,0.0666,,,,,,go.png,,GNG66,SD,1,2023-10-03_10h34.07.161,Cued_GNG,2022.2.5,Win32,60.1612321,0.3882,,,1,0,198,198,198,1,0.5,2,6
,,,,,,,,,,,,,,space,0.0666,,,,,,go.png,,GNG66,SD,1,2023-10-03_10h34.07.161,Cued_GNG,2022.2.5,Win32,60.1612321,0.4036,,,0,0,199,199,199,1,0.5,2,6
,,,,,,,,,,,,,,,0.0662,,,,,,nogo.png,,GNG66,SD,1,2023-10-03_10h34.07.161,Cued_GNG,2022.2.5,Win32,60.1612321,,,,0,0,200,200,200,1,0.5,2,6
,,,,,,,,,,,,,,space,0.0664,,,,,,go.png,,GNG66,SD,1,2023-10-03_10h34.07.161,Cued_GNG,2022.2.5,Win32,60.1612321,0.4185,,,0,0,201,201,201,1,0.5,2,6
,,,,,,,,,,,,,,,0.0662,,,,,,nogo.png,,GNG66,SD,1,2023-10-03_10h34.07.161,Cued_GNG,2022.2.5,Win32,60.1612321,,,,0,0,202,202,202,1,0.5,2,6
,,,,,,,,,,,,,,,0.0664,,,,,,nogo.png,,GNG66,SD,1,2023-10-03_10h34.07.161,Cued_GNG,2022.2.5,Win32,60.1612321,,,,0,0,203,203,203,1,0.5,2,6
,,,,,,,,,,,,,,space,0.0664,,,,,,go.png,,GNG66,SD,1,2023-10-03_10h34.07.161,Cued_GNG,2022.2.5,Win32,60.1612321,0.4253,,,0,0,204,204,204,1,0.5,2,6
,,,,,,,,,,,,,,space,0.0664,,,,,,go.png,,GNG66,SD,1,2023-10-03_10h34.07.161,Cued_GNG,2022.2.5,Win32,60.1612321,0.5921,,,0,0,205,205,205,1,0.5,2,6
,,,,,,,,,,,,,,,0.0663,,,,,,nogo.png,,GNG66,SD,1,2023-10-03_10h34.07.161,Cued_GNG,2022.2.5,Win32,60.1612321,,,,0,0,206,206,206,1,0.5,2,6
,,,,,,,,,,,,,,space,0.0664,,,,,,go.png,,GNG66,SD,1,2023-10-03_10h34.07.161,Cued_GNG,2022.2.5,Win32,60.1612321,0.3797,,,0,0,207,207,207,1,0.5,2,6
,,,,,,,,,,,,,,,0.0665,,,,,,nogo.png,,GNG66,SD,1,2023-10-03_10h34.07.161,Cued_GNG,2022.2.5,Win32,60.1612321,,,,0,0,208,208,208,1,0.5,2,6
,,,,,,,,,,,,,,,0.0663,,,,,,nogo.png,,GNG66,SD,1,2023-10-03_10h34.07.161,Cued_GNG,2022.2.5,Win32,60.1612321,,,,0,0,209,209,209,1,0.5,2,6
,,,,,,,,,,,,,,,0.0663,,,,,,nogo.png,,GNG66,SD,1,2023-10-03_10h34.07.161,Cued_GNG,2022.2.5,Win32,60.1612321,,,,0,0,210,210,210,1,0.5,2,6
,,,,,,,,,,,,,,space,0.0662,,,,,,go.png,,GNG66,SD,1,2023-10-03_10h34.07.161,Cued_GNG,2022.2.5,Win32,60.1612321,0.3867,,,0,0,211,211,211,1,0.5,2,6
,,,,,,,,,,,,,,,0.0659,,,,,,nogo.png,,GNG66,SD,1,2023-10-03_10h34.07.161,Cued_GNG,2022.2.5,Win32,60.1612321,,,,0,0,212,212,212,1,0.5,2,6
,,,,,,,,,,,,,,,0.0664,,,,,,nogo.png,,GNG66,SD,1,2023-10-03_10h34.07.161,Cued_GNG,2022.2.5,Win32,60.1612321,,,,0,0,213,213,213,1,0.5,2,6
,,,,,,,,,,,,,,space,0.0663,,,,,,go.png,,GNG66,SD,1,2023-10-03_10h34.07.161,Cued_GNG,2022.2.5,Win32,60.1612321,0.4039,,,0,0,214,214,214,1,0.5,2,6
,,,,,,,,,,,,,,space,0.0501,,,,,,go.png,,GNG66,SD,1,2023-10-03_10h34.07.161,Cued_GNG,2022.2.5,Win32,60.1612321,0.5509,,,0,0,215,215,215,1,0.5,2,6
,,,,,,,,,,,,,,space,0.0666,,,,,,go.png,,GNG66,SD,1,2023-10-03_10h34.07.161,Cued_GNG,2022.2.5,Win32,60.1612321,0.4664,,,0,0,216,216,216,1,0.5,2,6
,,,,,,,,,,,,,,,0.0664,,,,,,nogo.png,,GNG66,SD,1,2023-10-03_10h34.07.161,Cued_GNG,2022.2.5,Win32,60.1612321,,,,0,0,217,217,217,1,0.5,2,6
,,,,,,,,,,,,,,,0.0666,,,,,,nogo.png,,GNG66,SD,1,2023-10-03_10h34.07.161,Cued_GNG,2022.2.5,Win32,60.1612321,,,,0,0,218,218,218,1,0.5,2,6
,,,,,,,,,,,,,,space,0.0666,,,,,,go.png,,GNG66,SD,1,2023-10-03_10h34.07.161,Cued_GNG,2022.2.5,Win32,60.1612321,0.3973,,,0,0,219,219,219,1,0.5,2,6
,,,,,,,,,,,,,,space,0.0662,,,,,,go.png,,GNG66,SD,1,2023-10-03_10h34.07.161,Cued_GNG,2022.2.5,Win32,60.1612321,0.4204,,,0,0,220,220,220,1,0.5,2,6
,,,,,,,,,,,,,,space,0.0663,,,,,,go.png,,GNG66,SD,1,2023-10-03_10h34.07.161,Cued_GNG,2022.2.5,Win32,60.1612321,0.5367,,,0,0,221,221,221,1,0.5,2,6
,,,,,,,,,,,,,,,0.0628,,,,,,nogo.png,,GNG66,SD,1,2023-10-03_10h34.07.161,Cued_GNG,2022.2.5,Win32,60.1612321,,,,0,0,222,222,222,1,0.5,2,6
,,,,,,,,,,,,,,,0.0664,,,,,,nogo.png,,GNG66,SD,1,2023-10-03_10h34.07.161,Cued_GNG,2022.2.5,Win32,60.1612321,,,,0,0,223,223,223,1,0.5,2,6
,,,,,,,,,,,,,,space,0.0666,,,,,,go.png,,GNG66,SD,1,2023-10-03_10h34.07.161,Cued_GNG,2022.2.5,Win32,60.1612321,0.3324,,,0,0,224,224,224,1,0.8,3,7
,,,,,,,,,,,,,,space,0.0663,,,,,,go.png,,GNG66,SD,1,2023-10-03_10h34.07.161,Cued_GNG,2022.2.5,Win32,60.1612321,0.4444,,,0,0,225,225,225,1,0.8,3,7
,,,,,,,,,,,,,,space,0.0669,,,,,,go.png,,GNG66,SD,1,2023-10-03_10h34.07.161,Cued_GNG,2022.2.5,Win32,60.1612321,0.4402,,,0,0,226,226,226,1,0.8,3,7
,,,,,,,,,,,,,,space,0.0663,,,,,,go.png,,GNG66,SD,1,2023-10-03_10h34.07.161,Cued_GNG,2022.2.5,Win32,60.1612321,0.3715,,,0,0,227,227,227,1,0.8,3,7
,,,,,,,,,,,,,,,0.0665,,,,,,nogo.png,,GNG66,SD,1,2023-10-03_10h34.07.161,Cued_GNG,2022.2.5,Win32,60.1612321,,,,0,0,228,228,228,1,0.8,3,7
,,,,,,,,,,,,,,space,0.0665,,,,,,go.png,,GNG66,SD,1,2023-10-03_10h34.07.161,Cued_GNG,2022.2.5,Win32,60.1612321,0.5068,,,0,0,229,229,229,1,0.8,3,7
,,,,,,,,,,,,,,space,0.0662,,,,,,go.png,,GNG66,SD,1,2023-10-03_10h34.07.161,Cued_GNG,2022.2.5,Win32,60.1612321,0.4405,,,0,0,230,230,230,1,0.8,3,7
,,,,,,,,,,,,,,space,0.0662,,,,,,go.png,,GNG66,SD,1,2023-10-03_10h34.07.161,Cued_GNG,2022.2.5,Win32,60.1612321,0.3905,,,0,0,231,231,231,1,0.8,3,7
,,,,,,,,,,,,,,space,0.0663,,,,,,go.png,,GNG66,SD,1,2023-10-03_10h34.07.161,Cued_GNG,2022.2.5,Win32,60.1612321,0.3719,,,0,0,232,232,232,1,0.8,3,7
,,,,,,,,,,,,,,,0.0663,,,,,,nogo.png,,GNG66,SD,1,2023-10-03_10h34.07.161,Cued_GNG,2022.2.5,Win32,60.1612321,,,,0,0,233,233,233,1,0.8,3,7
,,,,,,,,,,,,,,space,0.0665,,,,,,go.png,,GNG66,SD,1,2023-10-03_10h34.07.161,Cued_GNG,2022.2.5,Win32,60.1612321,0.4086,,,0,0,234,234,234,1,0.8,3,7
,,,,,,,,,,,,,,space,0.0665,,,,,,go.png,,GNG66,SD,1,2023-10-03_10h34.07.161,Cued_GNG,2022.2.5,Win32,60.1612321,0.4706,,,0,0,235,235,235,1,0.8,3,7
,,,,,,,,,,,,,,space,0.0663,,,,,,go.png,,GNG66,SD,1,2023-10-03_10h34.07.161,Cued_GNG,2022.2.5,Win32,60.1612321,0.4092,,,0,0,236,236,236,1,0.8,3,7
,,,,,,,,,,,,,,space,0.0665,,,,,,go.png,,GNG66,SD,1,2023-10-03_10h34.07.161,Cued_GNG,2022.2.5,Win32,60.1612321,0.4685,,,0,0,237,237,237,1,0.8,3,7
,,,,,,,,,,,,,,space,0.0662,,,,,,go.png,,GNG66,SD,1,2023-10-03_10h34.07.161,Cued_GNG,2022.2.5,Win32,60.1612321,0.4427,,,0,0,238,238,238,1,0.8,3,7
,,,,,,,,,,,,,,space,0.0664,,,,,,go.png,,GNG66,SD,1,2023-10-03_10h34.07.161,Cued_GNG,2022.2.5,Win32,60.1612321,0.4518,,,0,0,239,239,239,1,0.8,3,7
,,,,,,,,,,,,,,space,0.0664,,,,,,go.png,,GNG66,SD,1,2023-10-03_10h34.07.161,Cued_GNG,2022.2.5,Win32,60.1612321,0.3865,,,0,0,240,240,240,1,0.8,3,7
,,,,,,,,,,,,,,,0.0664,,,,,,nogo.png,,GNG66,SD,1,2023-10-03_10h34.07.161,Cued_GNG,2022.2.5,Win32,60.1612321,,,,0,0,241,241,241,1,0.8,3,7
,,,,,,,,,,,,,,,0.0663,,,,,,nogo.png,,GNG66,SD,1,2023-10-03_10h34.07.161,Cued_GNG,2022.2.5,Win32,60.1612321,,,,0,0,242,242,242,1,0.8,3,7
,,,,,,,,,,,,,,space,0.0664,,,,,,go.png,,GNG66,SD,1,2023-10-03_10h34.07.161,Cued_GNG,2022.2.5,Win32,60.1612321,0.3381,,,0,0,243,243,243,1,0.8,3,7
,,,,,,,,,,,,,,space,0.0661,,,,,,go.png,,GNG66,SD,1,2023-10-03_10h34.07.161,Cued_GNG,2022.2.5,Win32,60.1612321,0.402,,,0,0,244,244,244,1,0.8,3,7
,,,,,,,,,,,,,,space,0.0661,,,,,,go.png,,GNG66,SD,1,2023-10-03_10h34.07.161,Cued_GNG,2022.2.5,Win32,60.1612321,0.3569,,,0,0,245,245,245,1,0.8,3,7
,,,,,,,,,,,,,,space,0.0651,,,,,,go.png,,GNG66,SD,1,2023-10-03_10h34.07.161,Cued_GNG,2022.2.5,Win32,60.1612321,0.3905,,,0,0,246,246,246,1,0.8,3,7
,,,,,,,,,,,,,,,0.0663,,,,,,nogo.png,,GNG66,SD,1,2023-10-03_10h34.07.161,Cued_GNG,2022.2.5,Win32,60.1612321,,,,0,0,247,247,247,1,0.8,3,7
,,,,,,,,,,,,,,space,0.0664,,,,,,go.png,,GNG66,SD,1,2023-10-03_10h34.07.161,Cued_GNG,2022.2.5,Win32,60.1612321,0.4507,,,0,0,248,248,248,1,0.8,3,7
,,,,,,,,,,,,,,space,0.0664,,,,,,go.png,,GNG66,SD,1,2023-10-03_10h34.07.161,Cued_GNG,2022.2.5,Win32,60.1612321,0.3872,,,0,0,249,249,249,1,0.8,3,7
,,,,,,,,,,,,,,space,0.066,,,,,,go.png,,GNG66,SD,1,2023-10-03_10h34.07.161,Cued_GNG,2022.2.5,Win32,60.1612321,0.3588,,,0,0,250,250,250,1,0.8,3,7
,,,,,,,,,,,,,,space,0.0662,,,,,,go.png,,GNG66,SD,1,2023-10-03_10h34.07.161,Cued_GNG,2022.2.5,Win32,60.1612321,0.4541,,,0,0,251,251,251,1,0.8,3,7
,,,,,,,,,,,,,,,0.0666,,,,,,nogo.png,,GNG66,SD,1,2023-10-03_10h34.07.161,Cued_GNG,2022.2.5,Win32,60.1612321,,,,0,0,252,252,252,1,0.8,3,7
,,,,,,,,,,,,,,space,0.0663,,,,,,go.png,,GNG66,SD,1,2023-10-03_10h34.07.161,Cued_GNG,2022.2.5,Win32,60.1612321,0.4618,,,0,0,253,253,253,1,0.8,3,7
,,,,,,,,,,,,,,space,0.0665,,,,,,go.png,,GNG66,SD,1,2023-10-03_10h34.07.161,Cued_GNG,2022.2.5,Win32,60.1612321,0.4057,,,0,0,254,254,254,1,0.8,3,7
,,,,,,,,,,,,,,space,0.0502,,,,,,go.png,,GNG66,SD,1,2023-10-03_10h34.07.161,Cued_GNG,2022.2.5,Win32,60.1612321,0.3525,,,0,0,255,255,255,1,0.8,3,7
,,,,,,,,,,,,,,space,0.0663,,,,,,go.png,,GNG66,SD,1,2023-10-03_10h34.07.161,Cued_GNG,2022.2.5,Win32,60.1612321,0.3705,,,0,0,256,256,256,1,0.8,3,7
,,,,,,,,,,,,,,,0.0664,,,,,,nogo.png,,GNG66,SD,1,2023-10-03_10h34.07.161,Cued_GNG,2022.2.5,Win32,60.1612321,,,,0,0,257,257,257,1,0.8,3,7
,,,,,,,,,,,,,,space,0.0663,,,,,,go.png,,GNG66,SD,1,2023-10-03_10h34.07.161,Cued_GNG,2022.2.5,Win32,60.1612321,0.3812,,,0,0,258,258,258,1,0.8,3,7
,,,,,,,,,,,,,,space,0.0664,,,,,,go.png,,GNG66,SD,1,2023-10-03_10h34.07.161,Cued_GNG,2022.2.5,Win32,60.1612321,0.452,,,0,0,259,259,259,1,0.8,3,7
,,,,,,,,,,,,,,,0.0664,,,,,,nogo.png,,GNG66,SD,1,2023-10-03_10h34.07.161,Cued_GNG,2022.2.5,Win32,60.1612321,,,,0,0,260,260,260,1,0.8,3,7
,,,,,,,,,,,,,,space,0.0665,,,,,,go.png,,GNG66,SD,1,2023-10-03_10h34.07.161,Cued_GNG,2022.2.5,Win32,60.1612321,0.4318,,,0,0,261,261,261,1,0.8,3,7
,,,,,,,,,,,,,,space,0.0667,,,,,,go.png,,GNG66,SD,1,2023-10-03_10h34.07.161,Cued_GNG,2022.2.5,Win32,60.1612321,0.4457,,,0,0,262,262,262,1,0.8,3,7
,,,,,,,,,,,,,,space,0.0662,,,,,,go.png,,GNG66,SD,1,2023-10-03_10h34.07.161,Cued_GNG,2022.2.5,Win32,60.1612321,0.5018,,,0,0,263,263,263,1,0.8,3,7
,,,,,,,,,,,,,,,0.0502,,,,,,nogo.png,,GNG66,SD,1,2023-10-03_10h34.07.161,Cued_GNG,2022.2.5,Win32,60.1612321,,,,0,0,264,264,264,1,0.2,3,8
,,,,,,,,,,,,,,,0.0667,,,,,,nogo.png,,GNG66,SD,1,2023-10-03_10h34.07.161,Cued_GNG,2022.2.5,Win32,60.1612321,,,,0,0,265,265,265,1,0.2,3,8
,,,,,,,,,,,,,,,0.0664,,,,,,nogo.png,,GNG66,SD,1,2023-10-03_10h34.07.161,Cued_GNG,2022.2.5,Win32,60.1612321,,,,0,0,266,266,266,1,0.2,3,8
,,,,,,,,,,,,,,space,0.0665,,,,,,go.png,,GNG66,SD,1,2023-10-03_10h34.07.161,Cued_GNG,2022.2.5,Win32,60.1612321,0.3919,,,0,0,267,267,267,1,0.2,3,8
,,,,,,,,,,,,,,,0.0665,,,,,,nogo.png,,GNG66,SD,1,2023-10-03_10h34.07.161,Cued_GNG,2022.2.5,Win32,60.1612321,,,,0,0,268,268,268,1,0.2,3,8
,,,,,,,,,,,,,,,0.0664,,,,,,nogo.png,,GNG66,SD,1,2023-10-03_10h34.07.161,Cued_GNG,2022.2.5,Win32,60.1612321,,,,0,0,269,269,269,1,0.2,3,8
,,,,,,,,,,,,,,,0.0663,,,,,,nogo.png,,GNG66,SD,1,2023-10-03_10h34.07.161,Cued_GNG,2022.2.5,Win32,60.1612321,,,,0,0,270,270,270,1,0.2,3,8
,,,,,,,,,,,,,,space,0.0665,,,,,,go.png,,GNG66,SD,1,2023-10-03_10h34.07.161,Cued_GNG,2022.2.5,Win32,60.1612321,0.3385,,,0,0,271,271,271,1,0.2,3,8
,,,,,,,,,,,,,,,0.0665,,,,,,nogo.png,,GNG66,SD,1,2023-10-03_10h34.07.161,Cued_GNG,2022.2.5,Win32,60.1612321,,,,0,0,272,272,272,1,0.2,3,8
,,,,,,,,,,,,,,,0.0664,,,,,,nogo.png,,GNG66,SD,1,2023-10-03_10h34.07.161,Cued_GNG,2022.2.5,Win32,60.1612321,,,,0,0,273,273,273,1,0.2,3,8
,,,,,,,,,,,,,,,0.0662,,,,,,nogo.png,,GNG66,SD,1,2023-10-03_10h34.07.161,Cued_GNG,2022.2.5,Win32,60.1612321,,,,0,0,274,274,274,1,0.2,3,8
,,,,,,,,,,,,,,,0.0665,,,,,,nogo.png,,GNG66,SD,1,2023-10-03_10h34.07.161,Cued_GNG,2022.2.5,Win32,60.1612321,,,,0,0,275,275,275,1,0.2,3,8
,,,,,,,,,,,,,,,0.0664,,,,,,nogo.png,,GNG66,SD,1,2023-10-03_10h34.07.161,Cued_GNG,2022.2.5,Win32,60.1612321,,,,0,0,276,276,276,1,0.2,3,8
,,,,,,,,,,,,,,,0.0662,,,,,,nogo.png,,GNG66,SD,1,2023-10-03_10h34.07.161,Cued_GNG,2022.2.5,Win32,60.1612321,,,,0,0,277,277,277,1,0.2,3,8
,,,,,,,,,,,,,,,0.0664,,,,,,nogo.png,,GNG66,SD,1,2023-10-03_10h34.07.161,Cued_GNG,2022.2.5,Win32,60.1612321,,,,0,0,278,278,278,1,0.2,3,8
,,,,,,,,,,,,,,space,0.0663,,,,,,go.png,,GNG66,SD,1,2023-10-03_10h34.07.161,Cued_GNG,2022.2.5,Win32,60.1612321,0.3699,,,0,0,279,279,279,1,0.2,3,8
,,,,,,,,,,,,,,,0.0667,,,,,,nogo.png,,GNG66,SD,1,2023-10-03_10h34.07.161,Cued_GNG,2022.2.5,Win32,60.1612321,,,,0,0,280,280,280,1,0.2,3,8
,,,,,,,,,,,,,,,0.0664,,,,,,nogo.png,,GNG66,SD,1,2023-10-03_10h34.07.161,Cued_GNG,2022.2.5,Win32,60.1612321,,,,0,0,281,281,281,1,0.2,3,8
,,,,,,,,,,,,,,,0.0665,,,,,,nogo.png,,GNG66,SD,1,2023-10-03_10h34.07.161,Cued_GNG,2022.2.5,Win32,60.1612321,,,,0,0,282,282,282,1,0.2,3,8
,,,,,,,,,,,,,,,0.0663,,,,,,nogo.png,,GNG66,SD,1,2023-10-03_10h34.07.161,Cued_GNG,2022.2.5,Win32,60.1612321,,,,0,0,283,283,283,1,0.2,3,8
,,,,,,,,,,,,,,,0.0662,,,,,,nogo.png,,GNG66,SD,1,2023-10-03_10h34.07.161,Cued_GNG,2022.2.5,Win32,60.1612321,,,,0,0,284,284,284,1,0.2,3,8
,,,,,,,,,,,,,,space,0.0662,,,,,,go.png,,GNG66,SD,1,2023-10-03_10h34.07.161,Cued_GNG,2022.2.5,Win32,60.1612321,0.4063,,,0,0,285,285,285,1,0.2,3,8
,,,,,,,,,,,,,,space,0.0664,,,,,,go.png,,GNG66,SD,1,2023-10-03_10h34.07.161,Cued_GNG,2022.2.5,Win32,60.1612321,0.6198,,,0,0,286,286,286,1,0.2,3,8
,,,,,,,,,,,,,,,0.0663,,,,,,nogo.png,,GNG66,SD,1,2023-10-03_10h34.07.161,Cued_GNG,2022.2.5,Win32,60.1612321,,,,0,0,287,287,287,1,0.2,3,8
,,,,,,,,,,,,,,,0.0663,,,,,,nogo.png,,GNG66,SD,1,2023-10-03_10h34.07.161,Cued_GNG,2022.2.5,Win32,60.1612321,,,,0,0,288,288,288,1,0.2,3,8
,,,,,,,,,,,,,,,0.0659,,,,,,nogo.png,,GNG66,SD,1,2023-10-03_10h34.07.161,Cued_GNG,2022.2.5,Win32,60.1612321,,,,0,0,289,289,289,1,0.2,3,8
,,,,,,,,,,,,,,,0.0647,,,,,,nogo.png,,GNG66,SD,1,2023-10-03_10h34.07.161,Cued_GNG,2022.2.5,Win32,60.1612321,,,,0,0,290,290,290,1,0.2,3,8
,,,,,,,,,,,,,,,0.0661,,,,,,nogo.png,,GNG66,SD,1,2023-10-03_10h34.07.161,Cued_GNG,2022.2.5,Win32,60.1612321,,,,0,0,291,291,291,1,0.2,3,8
,,,,,,,,,,,,,,space,0.0664,,,,,,go.png,,GNG66,SD,1,2023-10-03_10h34.07.161,Cued_GNG,2022.2.5,Win32,60.1612321,0.4022,,,0,0,292,292,292,1,0.2,3,8
,,,,,,,,,,,,,,,0.0664,,,,,,nogo.png,,GNG66,SD,1,2023-10-03_10h34.07.161,Cued_GNG,2022.2.5,Win32,60.1612321,,,,0,0,293,293,293,1,0.2,3,8
,,,,,,,,,,,,,,,0.0664,,,,,,nogo.png,,GNG66,SD,1,2023-10-03_10h34.07.161,Cued_GNG,2022.2.5,Win32,60.1612321,,,,0,0,294,294,294,1,0.2,3,8
,,,,,,,,,,,,,,,0.0664,,,,,,nogo.png,,GNG66,SD,1,2023-10-03_10h34.07.161,Cued_GNG,2022.2.5,Win32,60.1612321,,,,0,0,295,295,295,1,0.2,3,8
,,,,,,,,,,,,,,,0.0665,,,,,,nogo.png,,GNG66,SD,1,2023-10-03_10h34.07.161,Cued_GNG,2022.2.5,Win32,60.1612321,,,,0,0,296,296,296,1,0.2,3,8
,,,,,,,,,,,,,,space,0.0663,,,,,,go.png,,GNG66,SD,1,2023-10-03_10h34.07.161,Cued_GNG,2022.2.5,Win32,60.1612321,0.3591,,,0,0,297,297,297,1,0.2,3,8
,,,,,,,,,,,,,,,0.0501,,,,,,nogo.png,,GNG66,SD,1,2023-10-03_10h34.07.161,Cued_GNG,2022.2.5,Win32,60.1612321,,,,0,0,298,298,298,1,0.2,3,8
,,,,,,,,,,,,,,,0.0664,,,,,,nogo.png,,GNG66,SD,1,2023-10-03_10h34.07.161,Cued_GNG,2022.2.5,Win32,60.1612321,,,,0,0,299,299,299,1,0.2,3,8
,,,,,,,,,,,,,,space,0.0503,,,,,,go.png,,GNG66,SD,1,2023-10-03_10h34.07.161,Cued_GNG,2022.2.5,Win32,60.1612321,0.4414,,,0,0,300,300,300,1,0.2,3,8
,,,,,,,,,,,,,,,0.0662,,,,,,nogo.png,,GNG66,SD,1,2023-10-03_10h34.07.161,Cued_GNG,2022.2.5,Win32,60.1612321,,,,0,0,301,301,301,1,0.2,3,8
,,,,,,,,,,,,,,,0.0663,,,,,,nogo.png,,GNG66,SD,1,2023-10-03_10h34.07.161,Cued_GNG,2022.2.5,Win32,60.1612321,,,,0,0,302,302,302,1,0.2,3,8
,,,,,,,,,,,,,,,0.0663,,,,,,nogo.png,,GNG66,SD,1,2023-10-03_10h34.07.161,Cued_GNG,2022.2.5,Win32,60.1612321,,,,0,0,303,303,303,1,0.2,3,8
,,,,,,,,,,,,,,space,0.0664,,,,,,go.png,,GNG66,SD,1,2023-10-03_10h34.07.161,Cued_GNG,2022.2.5,Win32,60.1612321,0.3392,,,0,0,304,304,304,1,0.5,3,9
,,,,,,,,,,,,,,space,0.0663,,,,,,go.png,,GNG66,SD,1,2023-10-03_10h34.07.161,Cued_GNG,2022.2.5,Win32,60.1612321,0.4195,,,0,0,305,305,305,1,0.5,3,9
,,,,,,,,,,,,,,space,0.0664,,,,,,go.png,,GNG66,SD,1,2023-10-03_10h34.07.161,Cued_GNG,2022.2.5,Win32,60.1612321,0.4033,,,0,0,306,306,306,1,0.5,3,9
,,,,,,,,,,,,,,,0.0663,,,,,,nogo.png,,GNG66,SD,1,2023-10-03_10h34.07.161,Cued_GNG,2022.2.5,Win32,60.1612321,,,,0,0,307,307,307,1,0.5,3,9
,,,,,,,,,,,,,,,0.0664,,,,,,nogo.png,,GNG66,SD,1,2023-10-03_10h34.07.161,Cued_GNG,2022.2.5,Win32,60.1612321,,,,0,0,308,308,308,1,0.5,3,9
,,,,,,,,,,,,,,space,0.0662,,,,,,go.png,,GNG66,SD,1,2023-10-03_10h34.07.161,Cued_GNG,2022.2.5,Win32,60.1612321,0.3947,,,0,0,309,309,309,1,0.5,3,9
,,,,,,,,,,,,,,,0.0663,,,,,,nogo.png,,GNG66,SD,1,2023-10-03_10h34.07.161,Cued_GNG,2022.2.5,Win32,60.1612321,,,,0,0,310,310,310,1,0.5,3,9
,,,,,,,,,,,,,,,0.0661,,,,,,nogo.png,,GNG66,SD,1,2023-10-03_10h34.07.161,Cued_GNG,2022.2.5,Win32,60.1612321,,,,0,0,311,311,311,1,0.5,3,9
,,,,,,,,,,,,,,space,0.0663,,,,,,go.png,,GNG66,SD,1,2023-10-03_10h34.07.161,Cued_GNG,2022.2.5,Win32,60.1612321,0.3577,,,0,0,312,312,312,1,0.5,3,9
,,,,,,,,,,,,,,space,0.0664,,,,,,go.png,,GNG66,SD,1,2023-10-03_10h34.07.161,Cued_GNG,2022.2.5,Win32,60.1612321,0.4187,,,0,0,313,313,313,1,0.5,3,9
,,,,,,,,,,,,,,,0.0663,,,,,,nogo.png,,GNG66,SD,1,2023-10-03_10h34.07.161,Cued_GNG,2022.2.5,Win32,60.1612321,,,,0,0,314,314,314,1,0.5,3,9
,,,,,,,,,,,,,,space,0.0663,,,,,,go.png,,GNG66,SD,1,2023-10-03_10h34.07.161,Cued_GNG,2022.2.5,Win32,60.1612321,0.3766,,,0,0,315,315,315,1,0.5,3,9
,,,,,,,,,,,,,,space,0.0663,,,,,,go.png,,GNG66,SD,1,2023-10-03_10h34.07.161,Cued_GNG,2022.2.5,Win32,60.1612321,0.4694,,,0,0,316,316,316,1,0.5,3,9
,,,,,,,,,,,,,,,0.0663,,,,,,nogo.png,,GNG66,SD,1,2023-10-03_10h34.07.161,Cued_GNG,2022.2.5,Win32,60.1612321,,,,0,0,317,317,317,1,0.5,3,9
,,,,,,,,,,,,,,,0.0663,,,,,,nogo.png,,GNG66,SD,1,2023-10-03_10h34.07.161,Cued_GNG,2022.2.5,Win32,60.1612321,,,,0,0,318,318,318,1,0.5,3,9
,,,,,,,,,,,,,,,0.0663,,,,,,nogo.png,,GNG66,SD,1,2023-10-03_10h34.07.161,Cued_GNG,2022.2.5,Win32,60.1612321,,,,0,0,319,319,319,1,0.5,3,9
,,,,,,,,,,,,,,space,0.0663,,,,,,go.png,,GNG66,SD,1,2023-10-03_10h34.07.161,Cued_GNG,2022.2.5,Win32,60.1612321,0.2934,,,0,0,320,320,320,1,0.5,3,9
,,,,,,,,,,,,,,space,0.0662,,,,,,go.png,,GNG66,SD,1,2023-10-03_10h34.07.161,Cued_GNG,2022.2.5,Win32,60.1612321,0.371,,,0,0,321,321,321,1,0.5,3,9
,,,,,,,,,,,,,,,0.0663,,,,,,nogo.png,,GNG66,SD,1,2023-10-03_10h34.07.161,Cued_GNG,2022.2.5,Win32,60.1612321,,,,0,0,322,322,322,1,0.5,3,9
,,,,,,,,,,,,,,space,0.0662,,,,,,go.png,,GNG66,SD,1,2023-10-03_10h34.07.161,Cued_GNG,2022.2.5,Win32,60.1612321,0.4109,,,0,0,323,323,323,1,0.5,3,9
,,,,,,,,,,,,,,space,0.0664,,,,,,go.png,,GNG66,SD,1,2023-10-03_10h34.07.161,Cued_GNG,2022.2.5,Win32,60.1612321,0.3862,,,0,0,324,324,324,1,0.5,3,9
,,,,,,,,,,,,,,space,0.0663,,,,,,go.png,,GNG66,SD,1,2023-10-03_10h34.07.161,Cued_GNG,2022.2.5,Win32,60.1612321,0.3863,,,0,0,325,325,325,1,0.5,3,9
,,,,,,,,,,,,,,,0.066,,,,,,nogo.png,,GNG66,SD,1,2023-10-03_10h34.07.161,Cued_GNG,2022.2.5,Win32,60.1612321,,,,0,0,326,326,326,1,0.5,3,9
,,,,,,,,,,,,,,,0.0664,,,,,,nogo.png,,GNG66,SD,1,2023-10-03_10h34.07.161,Cued_GNG,2022.2.5,Win32,60.1612321,,,,0,0,327,327,327,1,0.5,3,9
,,,,,,,,,,,,,,,0.0662,,,,,,nogo.png,,GNG66,SD,1,2023-10-03_10h34.07.161,Cued_GNG,2022.2.5,Win32,60.1612321,,,,0,0,328,328,328,1,0.5,3,9
,,,,,,,,,,,,,,space,0.0664,,,,,,go.png,,GNG66,SD,1,2023-10-03_10h34.07.161,Cued_GNG,2022.2.5,Win32,60.1612321,0.4137,,,0,0,329,329,329,1,0.5,3,9
,,,,,,,,,,,,,,,0.0665,,,,,,nogo.png,,GNG66,SD,1,2023-10-03_10h34.07.161,Cued_GNG,2022.2.5,Win32,60.1612321,,,,0,0,330,330,330,1,0.5,3,9
,,,,,,,,,,,,,,,0.0665,,,,,,nogo.png,,GNG66,SD,1,2023-10-03_10h34.07.161,Cued_GNG,2022.2.5,Win32,60.1612321,,,,0,0,331,331,331,1,0.5,3,9
,,,,,,,,,,,,,,space,0.0666,,,,,,go.png,,GNG66,SD,1,2023-10-03_10h34.07.161,Cued_GNG,2022.2.5,Win32,60.1612321,0.3962,,,0,0,332,332,332,1,0.5,3,9
,,,,,,,,,,,,,,,0.0665,,,,,,nogo.png,,GNG66,SD,1,2023-10-03_10h34.07.161,Cued_GNG,2022.2.5,Win32,60.1612321,,,,0,0,333,333,333,1,0.5,3,9
,,,,,,,,,,,,,,,0.0664,,,,,,nogo.png,,GNG66,SD,1,2023-10-03_10h34.07.161,Cued_GNG,2022.2.5,Win32,60.1612321,,,,0,0,334,334,334,1,0.5,3,9
,,,,,,,,,,,,,,space,0.0661,,,,,,go.png,,GNG66,SD,1,2023-10-03_10h34.07.161,Cued_GNG,2022.2.5,Win32,60.1612321,0.4113,,,0,0,335,335,335,1,0.5,3,9
,,,,,,,,,,,,,,space,0.0667,,,,,,go.png,,GNG66,SD,1,2023-10-03_10h34.07.161,Cued_GNG,2022.2.5,Win32,60.1612321,0.4526,,,0,0,336,336,336,1,0.2,4,10
,,,,,,,,,,,,,,,0.0663,,,,,,nogo.png,,GNG66,SD,1,2023-10-03_10h34.07.161,Cued_GNG,2022.2.5,Win32,60.1612321,,,,0,0,337,337,337,1,0.2,4,10
,,,,,,,,,,,,,,,0.0663,,,,,,nogo.png,,GNG66,SD,1,2023-10-03_10h34.07.161,Cued_GNG,2022.2.5,Win32,60.1612321,,,,0,0,338,338,338,1,0.2,4,10
,,,,,,,,,,,,,,space,0.0664,,,,,,go.png,,GNG66,SD,1,2023-10-03_10h34.07.161,Cued_GNG,2022.2.5,Win32,60.1612321,0.6562,,,0,0,339,339,339,1,0.2,4,10
,,,,,,,,,,,,,,space,0.0664,,,,,,go.png,,GNG66,SD,1,2023-10-03_10h34.07.161,Cued_GNG,2022.2.5,Win32,60.1612321,0.5524,,,0,0,340,340,340,1,0.2,4,10
,,,,,,,,,,,,,,,0.0662,,,,,,nogo.png,,GNG66,SD,1,2023-10-03_10h34.07.161,Cued_GNG,2022.2.5,Win32,60.1612321,,,,0,0,341,341,341,1,0.2,4,10
,,,,,,,,,,,,,,,0.0665,,,,,,nogo.png,,GNG66,SD,1,2023-10-03_10h34.07.161,Cued_GNG,2022.2.5,Win32,60.1612321,,,,0,0,342,342,342,1,0.2,4,10
,,,,,,,,,,,,,,,0.0664,,,,,,nogo.png,,GNG66,SD,1,2023-10-03_10h34.07.161,Cued_GNG,2022.2.5,Win32,60.1612321,,,,0,0,343,343,343,1,0.2,4,10
,,,,,,,,,,,,,,,0.0661,,,,,,nogo.png,,GNG66,SD,1,2023-10-03_10h34.07.161,Cued_GNG,2022.2.5,Win32,60.1612321,,,,0,0,344,344,344,1,0.2,4,10
,,,,,,,,,,,,,,,0.0666,,,,,,nogo.png,,GNG66,SD,1,2023-10-03_10h34.07.161,Cued_GNG,2022.2.5,Win32,60.1612321,,,,0,0,345,345,345,1,0.2,4,10
,,,,,,,,,,,,,,,0.0667,,,,,,nogo.png,,GNG66,SD,1,2023-10-03_10h34.07.161,Cued_GNG,2022.2.5,Win32,60.1612321,,,,0,0,346,346,346,1,0.2,4,10
,,,,,,,,,,,,,,space,0.0667,,,,,,go.png,,GNG66,SD,1,2023-10-03_10h34.07.161,Cued_GNG,2022.2.5,Win32,60.1612321,0.4041,,,0,0,347,347,347,1,0.2,4,10
,,,,,,,,,,,,,,,0.0664,,,,,,nogo.png,,GNG66,SD,1,2023-10-03_10h34.07.161,Cued_GNG,2022.2.5,Win32,60.1612321,,,,0,0,348,348,348,1,0.2,4,10
,,,,,,,,,,,,,,,0.0664,,,,,,nogo.png,,GNG66,SD,1,2023-10-03_10h34.07.161,Cued_GNG,2022.2.5,Win32,60.1612321,,,,0,0,349,349,349,1,0.2,4,10
,,,,,,,,,,,,,,,0.0663,,,,,,nogo.png,,GNG66,SD,1,2023-10-03_10h34.07.161,Cued_GNG,2022.2.5,Win32,60.1612321,,,,0,0,350,350,350,1,0.2,4,10
,,,,,,,,,,,,,,,0.0663,,,,,,nogo.png,,GNG66,SD,1,2023-10-03_10h34.07.161,Cued_GNG,2022.2.5,Win32,60.1612321,,,,0,0,351,351,351,1,0.2,4,10
,,,,,,,,,,,,,,,0.0664,,,,,,nogo.png,,GNG66,SD,1,2023-10-03_10h34.07.161,Cued_GNG,2022.2.5,Win32,60.1612321,,,,0,0,352,352,352,1,0.2,4,10
,,,,,,,,,,,,,,,0.0664,,,,,,nogo.png,,GNG66,SD,1,2023-10-03_10h34.07.161,Cued_GNG,2022.2.5,Win32,60.1612321,,,,0,0,353,353,353,1,0.2,4,10
,,,,,,,,,,,,,,,0.0663,,,,,,nogo.png,,GNG66,SD,1,2023-10-03_10h34.07.161,Cued_GNG,2022.2.5,Win32,60.1612321,,,,0,0,354,354,354,1,0.2,4,10
,,,,,,,,,,,,,,space,0.0663,,,,,,go.png,,GNG66,SD,1,2023-10-03_10h34.07.161,Cued_GNG,2022.2.5,Win32,60.1612321,0.3944,,,0,0,355,355,355,1,0.2,4,10
,,,,,,,,,,,,,,,0.0663,,,,,,nogo.png,,GNG66,SD,1,2023-10-03_10h34.07.161,Cued_GNG,2022.2.5,Win32,60.1612321,,,,0,0,356,356,356,1,0.2,4,10
,,,,,,,,,,,,,,,0.0661,,,,,,nogo.png,,GNG66,SD,1,2023-10-03_10h34.07.161,Cued_GNG,2022.2.5,Win32,60.1612321,,,,0,0,357,357,357,1,0.2,4,10
,,,,,,,,,,,,,,,0.0626,,,,,,nogo.png,,GNG66,SD,1,2023-10-03_10h34.07.161,Cued_GNG,2022.2.5,Win32,60.1612321,,,,0,0,358,358,358,1,0.2,4,10
,,,,,,,,,,,,,,space,0.0662,,,,,,go.png,,GNG66,SD,1,2023-10-03_10h34.07.161,Cued_GNG,2022.2.5,Win32,60.1612321,0.3693,,,0,0,359,359,359,1,0.2,4,10
,,,,,,,,,,,,,,,0.0662,,,,,,nogo.png,,GNG66,SD,1,2023-10-03_10h34.07.161,Cued_GNG,2022.2.5,Win32,60.1612321,,,,0,0,360,360,360,1,0.2,4,10
,,,,,,,,,,,,,,,0.0665,,,,,,nogo.png,,GNG66,SD,1,2023-10-03_10h34.07.161,Cued_GNG,2022.2.5,Win32,60.1612321,,,,0,0,361,361,361,1,0.2,4,10
,,,,,,,,,,,,,,,0.0664,,,,,,nogo.png,,GNG66,SD,1,2023-10-03_10h34.07.161,Cued_GNG,2022.2.5,Win32,60.1612321,,,,0,0,362,362,362,1,0.2,4,10
,,,,,,,,,,,,,,,0.0664,,,,,,nogo.png,,GNG66,SD,1,2023-10-03_10h34.07.161,Cued_GNG,2022.2.5,Win32,60.1612321,,,,0,0,363,363,363,1,0.2,4,10
,,,,,,,,,,,,,,space,0.0665,,,,,,go.png,,GNG66,SD,1,2023-10-03_10h34.07.161,Cued_GNG,2022.2.5,Win32,60.1612321,0.4158,,,0,0,364,364,364,1,0.2,4,10
,,,,,,,,,,,,,,,0.0659,,,,,,nogo.png,,GNG66,SD,1,2023-10-03_10h34.07.161,Cued_GNG,2022.2.5,Win32,60.1612321,,,,0,0,365,365,365,1,0.2,4,10
,,,,,,,,,,,,,,,0.0663,,,,,,nogo.png,,GNG66,SD,1,2023-10-03_10h34.07.161,Cued_GNG,2022.2.5,Win32,60.1612321,,,,0,0,366,366,366,1,0.2,4,10
,,,,,,,,,,,,,,,0.0663,,,,,,nogo.png,,GNG66,SD,1,2023-10-03_10h34.07.161,Cued_GNG,2022.2.5,Win32,60.1612321,,,,0,0,367,367,367,1,0.2,4,10
,,,,,,,,,,,,,,,0.0664,,,,,,nogo.png,,GNG66,SD,1,2023-10-03_10h34.07.161,Cued_GNG,2022.2.5,Win32,60.1612321,,,,0,0,368,368,368,1,0.2,4,10
,,,,,,,,,,,,,,,0.066,,,,,,nogo.png,,GNG66,SD,1,2023-10-03_10h34.07.161,Cued_GNG,2022.2.5,Win32,60.1612321,,,,0,0,369,369,369,1,0.2,4,10
,,,,,,,,,,,,,,,0.0664,,,,,,nogo.png,,GNG66,SD,1,2023-10-03_10h34.07.161,Cued_GNG,2022.2.5,Win32,60.1612321,,,,0,0,370,370,370,1,0.2,4,10
,,,,,,,,,,,,,,,0.0664,,,,,,nogo.png,,GNG66,SD,1,2023-10-03_10h34.07.161,Cued_GNG,2022.2.5,Win32,60.1612321,,,,0,0,371,371,371,1,0.2,4,10
,,,,,,,,,,,,,,space,0.0659,,,,,,go.png,,GNG66,SD,1,2023-10-03_10h34.07.161,Cued_GNG,2022.2.5,Win32,60.1612321,0.3958,,,0,0,372,372,372,1,0.2,4,10
,,,,,,,,,,,,,,,0.0662,,,,,,nogo.png,,GNG66,SD,1,2023-10-03_10h34.07.161,Cued_GNG,2022.2.5,Win32,60.1612321,,,,0,0,373,373,373,1,0.2,4,10
,,,,,,,,,,,,,,,0.0664,,,,,,nogo.png,,GNG66,SD,1,2023-10-03_10h34.07.161,Cued_GNG,2022.2.5,Win32,60.1612321,,,,0,0,374,374,374,1,0.2,4,10
,,,,,,,,,,,,,,,0.0662,,,,,,nogo.png,,GNG66,SD,1,2023-10-03_10h34.07.161,Cued_GNG,2022.2.5,Win32,60.1612321,,,,0,0,375,375,375,1,0.2,4,10
,,,,,,,,,,,,,,space,0.0663,,,,,,go.png,,GNG66,SD,1,2023-10-03_10h34.07.161,Cued_GNG,2022.2.5,Win32,60.1612321,0.5049,,,0,0,376,376,376,1,0.8,4,11
,,,,,,,,,,,,,,space,0.0665,,,,,,go.png,,GNG66,SD,1,2023-10-03_10h34.07.161,Cued_GNG,2022.2.5,Win32,60.1612321,0.5194,,,0,0,377,377,377,1,0.8,4,11
,,,,,,,,,,,,,,space,0.0666,,,,,,go.png,,GNG66,SD,1,2023-10-03_10h34.07.161,Cued_GNG,2022.2.5,Win32,60.1612321,0.4622,,,0,0,378,378,378,1,0.8,4,11
,,,,,,,,,,,,,,,0.0662,,,,,,nogo.png,,GNG66,SD,1,2023-10-03_10h34.07.161,Cued_GNG,2022.2.5,Win32,60.1612321,,,,0,0,379,379,379,1,0.8,4,11
,,,,,,,,,,,,,,space,0.0661,,,,,,go.png,,GNG66,SD,1,2023-10-03_10h34.07.161,Cued_GNG,2022.2.5,Win32,60.1612321,0.4455,,,0,0,380,380,380,1,0.8,4,11
,,,,,,,,,,,,,,space,0.0663,,,,,,go.png,,GNG66,SD,1,2023-10-03_10h34.07.161,Cued_GNG,2022.2.5,Win32,60.1612321,0.519,,,0,0,381,381,381,1,0.8,4,11
,,,,,,,,,,,,,,space,0.0663,,,,,,go.png,,GNG66,SD,1,2023-10-03_10h34.07.161,Cued_GNG,2022.2.5,Win32,60.1612321,0.4557,,,0,0,382,382,382,1,0.8,4,11
,,,,,,,,,,,,,,,0.0662,,,,,,nogo.png,,GNG66,SD,1,2023-10-03_10h34.07.161,Cued_GNG,2022.2.5,Win32,60.1612321,,,,0,0,383,383,383,1,0.8,4,11
,,,,,,,,,,,,,,space,0.0665,,,,,,go.png,,GNG66,SD,1,2023-10-03_10h34.07.161,Cued_GNG,2022.2.5,Win32,60.1612321,0.4383,,,0,0,384,384,384,1,0.8,4,11
,,,,,,,,,,,,,,space,0.0664,,,,,,go.png,,GNG66,SD,1,2023-10-03_10h34.07.161,Cued_GNG,2022.2.5,Win32,60.1612321,0.4189,,,0,0,385,385,385,1,0.8,4,11
,,,,,,,,,,,,,,space,0.0664,,,,,,go.png,,GNG66,SD,1,2023-10-03_10h34.07.161,Cued_GNG,2022.2.5,Win32,60.1612321,0.5034,,,0,0,386,386,386,1,0.8,4,11
,,,,,,,,,,,,,,space,0.0665,,,,,,go.png,,GNG66,SD,1,2023-10-03_10h34.07.161,Cued_GNG,2022.2.5,Win32,60.1612321,0.3261,,,0,0,387,387,387,1,0.8,4,11
,,,,,,,,,,,,,,space,0.0663,,,,,,go.png,,GNG66,SD,1,2023-10-03_10h34.07.161,Cued_GNG,2022.2.5,Win32,60.1612321,0.4218,,,0,0,388,388,388,1,0.8,4,11
,,,,,,,,,,,,,,space,0.0663,,,,,,go.png,,GNG66,SD,1,2023-10-03_10h34.07.161,Cued_GNG,2022.2.5,Win32,60.1612321,0.3607,,,0,0,389,389,389,1,0.8,4,11
,,,,,,,,,,,,,,,0.0665,,,,,,nogo.png,,GNG66,SD,1,2023-10-03_10h34.07.161,Cued_GNG,2022.2.5,Win32,60.1612321,,,,0,0,390,390,390,1,0.8,4,11
,,,,,,,,,,,,,,space,0.0662,,,,,,go.png,,GNG66,SD,1,2023-10-03_10h34.07.161,Cued_GNG,2022.2.5,Win32,60.1612321,0.4411,,,0,0,391,391,391,1,0.8,4,11
,,,,,,,,,,,,,,space,0.0663,,,,,,go.png,,GNG66,SD,1,2023-10-03_10h34.07.161,Cued_GNG,2022.2.5,Win32,60.1612321,0.3868,,,0,0,392,392,392,1,0.8,4,11
,,,,,,,,,,,,,,space,0.05,,,,,,go.png,,GNG66,SD,1,2023-10-03_10h34.07.161,Cued_GNG,2022.2.5,Win32,60.1612321,0.3863,,,0,0,393,393,393,1,0.8,4,11
,,,,,,,,,,,,,,,0.0663,,,,,,nogo.png,,GNG66,SD,1,2023-10-03_10h34.07.161,Cued_GNG,2022.2.5,Win32,60.1612321,,,,0,0,394,394,394,1,0.8,4,11
,,,,,,,,,,,,,,space,0.0656,,,,,,go.png,,GNG66,SD,1,2023-10-03_10h34.07.161,Cued_GNG,2022.2.5,Win32,60.1612321,0.4067,,,0,0,395,395,395,1,0.8,4,11
,,,,,,,,,,,,,,space,0.0666,,,,,,go.png,,GNG66,SD,1,2023-10-03_10h34.07.161,Cued_GNG,2022.2.5,Win32,60.1612321,0.374,,,0,0,396,396,396,1,0.8,4,11
,,,,,,,,,,,,,,space,0.0662,,,,,,go.png,,GNG66,SD,1,2023-10-03_10h34.07.161,Cued_GNG,2022.2.5,Win32,60.1612321,0.3782,,,0,0,397,397,397,1,0.8,4,11
,,,,,,,,,,,,,,space,0.0663,,,,,,go.png,,GNG66,SD,1,2023-10-03_10h34.07.161,Cued_GNG,2022.2.5,Win32,60.1612321,0.4619,,,0,0,398,398,398,1,0.8,4,11
,,,,,,,,,,,,,,space,0.0667,,,,,,go.png,,GNG66,SD,1,2023-10-03_10h34.07.161,Cued_GNG,2022.2.5,Win32,60.1612321,0.4235,,,0,0,399,399,399,1,0.8,4,11
,,,,,,,,,,,,,,space,0.0663,,,,,,go.png,,GNG66,SD,1,2023-10-03_10h34.07.161,Cued_GNG,2022.2.5,Win32,60.1612321,0.4861,,,0,0,400,400,400,1,0.8,4,11
,,,,,,,,,,,,,,,0.0659,,,,,,nogo.png,,GNG66,SD,1,2023-10-03_10h34.07.161,Cued_GNG,2022.2.5,Win32,60.1612321,,,,0,0,401,401,401,1,0.8,4,11
,,,,,,,,,,,,,,,0.0665,,,,,,nogo.png,,GNG66,SD,1,2023-10-03_10h34.07.161,Cued_GNG,2022.2.5,Win32,60.1612321,,,,0,0,402,402,402,1,0.8,4,11
,,,,,,,,,,,,,,space,0.0662,,,,,,go.png,,GNG66,SD,1,2023-10-03_10h34.07.161,Cued_GNG,2022.2.5,Win32,60.1612321,0.6776,,,0,0,403,403,403,1,0.8,4,11
,,,,,,,,,,,,,,space,0.0663,,,,,,go.png,,GNG66,SD,1,2023-10-03_10h34.07.161,Cued_GNG,2022.2.5,Win32,60.1612321,0.36,,,0,0,404,404,404,1,0.8,4,11
,,,,,,,,,,,,,,space,0.0665,,,,,,go.png,,GNG66,SD,1,2023-10-03_10h34.07.161,Cued_GNG,2022.2.5,Win32,60.1612321,0.3846,,,0,0,405,405,405,1,0.8,4,11
,,,,,,,,,,,,,,space,0.0664,,,,,,nogo.png,,GNG66,SD,1,2023-10-03_10h34.07.161,Cued_GNG,2022.2.5,Win32,60.1612321,0.4127,,,0,0,406,406,406,1,0.8,4,11
,,,,,,,,,,,,,,space,0.0664,,,,,,go.png,,GNG66,SD,1,2023-10-03_10h34.07.161,Cued_GNG,2022.2.5,Win32,60.1612321,0.4724,,,0,0,407,407,407,1,0.8,4,11
,,,,,,,,,,,,,,space,0.0664,,,,,,go.png,,GNG66,SD,1,2023-10-03_10h34.07.161,Cued_GNG,2022.2.5,Win32,60.1612321,0.4863,,,0,0,408,408,408,1,0.8,4,11
,,,,,,,,,,,,,,space,0.0662,,,,,,go.png,,GNG66,SD,1,2023-10-03_10h34.07.161,Cued_GNG,2022.2.5,Win32,60.1612321,0.3744,,,0,0,409,409,409,1,0.8,4,11
,,,,,,,,,,,,,,space,0.0521,,,,,,go.png,,GNG66,SD,1,2023-10-03_10h34.07.161,Cued_GNG,2022.2.5,Win32,60.1612321,0.4043,,,0,0,410,410,410,1,0.8,4,11
,,,,,,,,,,,,,,,0.0663,,,,,,nogo.png,,GNG66,SD,1,2023-10-03_10h34.07.161,Cued_GNG,2022.2.5,Win32,60.1612321,,,,0,0,411,411,411,1,0.8,4,11
,,,,,,,,,,,,,,space,0.0666,,,,,,go.png,,GNG66,SD,1,2023-10-03_10h34.07.161,Cued_GNG,2022.2.5,Win32,60.1612321,0.5209,,,0,0,412,412,412,1,0.8,4,11
,,,,,,,,,,,,,,space,0.0664,,,,,,go.png,,GNG66,SD,1,2023-10-03_10h34.07.161,Cued_GNG,2022.2.5,Win32,60.1612321,0.3363,,,0,0,413,413,413,1,0.8,4,11
,,,,,,,,,,,,,,space,0.0661,,,,,,go.png,,GNG66,SD,1,2023-10-03_10h34.07.161,Cued_GNG,2022.2.5,Win32,60.1612321,0.4764,,,0,0,414,414,414,1,0.8,4,11
,,,,,,,,,,,,,,space,0.0664,,,,,,go.png,,GNG66,SD,1,2023-10-03_10h34.07.161,Cued_GNG,2022.2.5,Win32,60.1612321,0.412,,,0,0,415,415,415,1,0.8,4,11
,,,,,,,,,,,,,,,0.0665,,,,,,nogo.png,,GNG66,SD,1,2023-10-03_10h34.07.161,Cued_GNG,2022.2.5,Win32,60.1612321,,,,0,0,416,416,416,1,0.5,4,12
,,,,,,,,,,,,,,,0.0662,,,,,,nogo.png,,GNG66,SD,1,2023-10-03_10h34.07.161,Cued_GNG,2022.2.5,Win32,60.1612321,,,,0,0,417,417,417,1,0.5,4,12
,,,,,,,,,,,,,,,0.0664,,,,,,nogo.png,,GNG66,SD,1,2023-10-03_10h34.07.161,Cued_GNG,2022.2.5,Win32,60.1612321,,,,0,0,418,418,418,1,0.5,4,12
,,,,,,,,,,,,,,,0.0664,,,,,,go.png,,GNG66,SD,1,2023-10-03_10h34.07.161,Cued_GNG,2022.2.5,Win32,60.1612321,,,,0,0,419,419,419,1,0.5,4,12
,,,,,,,,,,,,,,space,0.0665,,,,,,go.png,,GNG66,SD,1,2023-10-03_10h34.07.161,Cued_GNG,2022.2.5,Win32,60.1612321,0.3888,,,0,0,420,420,420,1,0.5,4,12
,,,,,,,,,,,,,,space,0.0664,,,,,,go.png,,GNG66,SD,1,2023-10-03_10h34.07.161,Cued_GNG,2022.2.5,Win32,60.1612321,0.4517,,,0,0,421,421,421,1,0.5,4,12
,,,,,,,,,,,,,,,0.0657,,,,,,nogo.png,,GNG66,SD,1,2023-10-03_10h34.07.161,Cued_GNG,2022.2.5,Win32,60.1612321,,,,0,0,422,422,422,1,0.5,4,12
,,,,,,,,,,,,,,,0.0662,,,,,,nogo.png,,GNG66,SD,1,2023-10-03_10h34.07.161,Cued_GNG,2022.2.5,Win32,60.1612321,,,,0,0,423,423,423,1,0.5,4,12
,,,,,,,,,,,,,,space,0.066,,,,,,go.png,,GNG66,SD,1,2023-10-03_10h34.07.161,Cued_GNG,2022.2.5,Win32,60.1612321,0.4818,,,0,0,424,424,424,1,0.5,4,12
,,,,,,,,,,,,,,,0.0667,,,,,,nogo.png,,GNG66,SD,1,2023-10-03_10h34.07.161,Cued_GNG,2022.2.5,Win32,60.1612321,,,,0,0,425,425,425,1,0.5,4,12
,,,,,,,,,,,,,,space,0.0662,,,,,,go.png,,GNG66,SD,1,2023-10-03_10h34.07.161,Cued_GNG,2022.2.5,Win32,60.1612321,0.4573,,,0,0,426,426,426,1,0.5,4,12
,,,,,,,,,,,,,,,0.0662,,,,,,go.png,,GNG66,SD,1,2023-10-03_10h34.07.161,Cued_GNG,2022.2.5,Win32,60.1612321,,,,0,0,427,427,427,1,0.5,4,12
,,,,,,,,,,,,,,space,0.0663,,,,,,nogo.png,,GNG66,SD,1,2023-10-03_10h34.07.161,Cued_GNG,2022.2.5,Win32,60.1612321,0.6762,,,0,0,428,428,428,1,0.5,4,12
,,,,,,,,,,,,,,,0.0663,,,,,,nogo.png,,GNG66,SD,1,2023-10-03_10h34.07.161,Cued_GNG,2022.2.5,Win32,60.1612321,,,,0,0,429,429,429,1,0.5,4,12
,,,,,,,,,,,,,,space,0.0665,,,,,,go.png,,GNG66,SD,1,2023-10-03_10h34.07.161,Cued_GNG,2022.2.5,Win32,60.1612321,0.4582,,,0,0,430,430,430,1,0.5,4,12
,,,,,,,,,,,,,,,0.0501,,,,,,nogo.png,,GNG66,SD,1,2023-10-03_10h34.07.161,Cued_GNG,2022.2.5,Win32,60.1612321,,,,0,0,431,431,431,1,0.5,4,12
,,,,,,,,,,,,,,space,0.0661,,,,,,go.png,,GNG66,SD,1,2023-10-03_10h34.07.161,Cued_GNG,2022.2.5,Win32,60.1612321,0.4306,,,0,0,432,432,432,1,0.5,4,12
,,,,,,,,,,,,,,space,0.0664,,,,,,go.png,,GNG66,SD,1,2023-10-03_10h34.07.161,Cued_GNG,2022.2.5,Win32,60.1612321,0.5563,,,0,0,433,433,433,1,0.5,4,12
,,,,,,,,,,,,,,,0.0665,,,,,,nogo.png,,GNG66,SD,1,2023-10-03_10h34.07.161,Cued_GNG,2022.2.5,Win32,60.1612321,,,,0,0,434,434,434,1,0.5,4,12
,,,,,,,,,,,,,,space,0.0663,,,,,,go.png,,GNG66,SD,1,2023-10-03_10h34.07.161,Cued_GNG,2022.2.5,Win32,60.1612321,0.4206,,,0,0,435,435,435,1,0.5,4,12
,,,,,,,,,,,,,,space,0.0664,,,,,,go.png,,GNG66,SD,1,2023-10-03_10h34.07.161,Cued_GNG,2022.2.5,Win32,60.1612321,0.4202,,,0,0,436,436,436,1,0.5,4,12
,,,,,,,,,,,,,,,0.0664,,,,,,nogo.png,,GNG66,SD,1,2023-10-03_10h34.07.161,Cued_GNG,2022.2.5,Win32,60.1612321,,,,0,0,437,437,437,1,0.5,4,12
,,,,,,,,,,,,,,,0.0665,,,,,,nogo.png,,GNG66,SD,1,2023-10-03_10h34.07.161,Cued_GNG,2022.2.5,Win32,60.1612321,,,,0,0,438,438,438,1,0.5,4,12
,,,,,,,,,,,,,,space,0.0663,,,,,,go.png,,GNG66,SD,1,2023-10-03_10h34.07.161,Cued_GNG,2022.2.5,Win32,60.1612321,0.4725,,,0,0,439,439,439,1,0.5,4,12
,,,,,,,,,,,,,,space,0.0668,,,,,,go.png,,GNG66,SD,1,2023-10-03_10h34.07.161,Cued_GNG,2022.2.5,Win32,60.1612321,0.4547,,,0,0,440,440,440,1,0.5,4,12
,,,,,,,,,,,,,,,0.0663,,,,,,nogo.png,,GNG66,SD,1,2023-10-03_10h34.07.161,Cued_GNG,2022.2.5,Win32,60.1612321,,,,0,0,441,441,441,1,0.5,4,12
,,,,,,,,,,,,,,,0.0663,,,,,,nogo.png,,GNG66,SD,1,2023-10-03_10h34.07.161,Cued_GNG,2022.2.5,Win32,60.1612321,,,,0,0,442,442,442,1,0.5,4,12
,,,,,,,,,,,,,,,0.0664,,,,,,nogo.png,,GNG66,SD,1,2023-10-03_10h34.07.161,Cued_GNG,2022.2.5,Win32,60.1612321,,,,0,0,443,443,443,1,0.5,4,12
,,,,,,,,,,,,,,space,0.0665,,,,,,go.png,,GNG66,SD,1,2023-10-03_10h34.07.161,Cued_GNG,2022.2.5,Win32,60.1612321,0.4006,,,0,0,444,444,444,1,0.5,4,12
,,,,,,,,,,,,,,space,0.0664,,,,,,go.png,,GNG66,SD,1,2023-10-03_10h34.07.161,Cued_GNG,2022.2.5,Win32,60.1612321,0.473,,,0,0,445,445,445,1,0.5,4,12
,,,,,,,,,,,,,,,0.0663,,,,,,nogo.png,,GNG66,SD,1,2023-10-03_10h34.07.161,Cued_GNG,2022.2.5,Win32,60.1612321,,,,0,0,446,446,446,1,0.5,4,12
,,,,,,,,,,,,,,,0.0663,,,,,,go.png,,GNG66,SD,1,2023-10-03_10h34.07.161,Cued_GNG,2022.2.5,Win32,60.1612321,,,,0,0,447,447,447,1,0.5,4,12
